"run_id","condition","trial_type","trial_index","time_elapsed","internal_node_id","id","success","timeout","failed_images","failed_audio","failed_video","rt","stimulus","response","testTrial","sbjID","trialN","target","foil1","foil2","corrRes","recorded_at","browser.1","browser_version.1","source_code_version","attn","src","study","attentionTrial","corr"
138,1,"audio-keyboard-response",9,76906,"0.0-7.0-1.0-0.0","5f876d20868e33189340086b","","","","","",2499,"Brown Thrasher 1.mp3","h",TRUE,"5f876d20868e33189340086b","1","Acadian Flycatcher 1.mp3","Blackthroated Blue Warbler 1.mp3","Brown Thrasher 1.mp3","h","2022-05-25 23:19:47","","","be81e7d9a9b77b828a6c90f3040b643f",0,"prolific","oaAlpha","",TRUE
138,1,"audio-keyboard-response",12,84595,"0.0-9.0-1.0-0.0","5f876d20868e33189340086b","","","","","",880,"Acadian Flycatcher 2.mp3","g",TRUE,"5f876d20868e33189340086b","2","Acadian Flycatcher 2.mp3","Carolina Wren 1.mp3","Eastern Towhee 1.mp3","g","2022-05-25 23:19:47","","","be81e7d9a9b77b828a6c90f3040b643f",0,"prolific","oaAlpha","",TRUE
138,1,"audio-keyboard-response",16,98544,"0.0-11.0-2.0-0.0","5f876d20868e33189340086b","","","","","",2400,"Hermit Thrush 1.mp3","g",TRUE,"5f876d20868e33189340086b","3","Acadian Flycatcher 3.mp3","Eurasian Blackbird 1.mp3","Hermit Thrush 1.mp3","g","2022-05-25 23:19:47","","","be81e7d9a9b77b828a6c90f3040b643f",0,"prolific","oaAlpha","",TRUE
138,1,"audio-keyboard-response",20,122644,"0.0-14.0-1.0-0.0","5f876d20868e33189340086b","","","","","",2952,"Winter Wren 2.mp3","h",TRUE,"5f876d20868e33189340086b","4","American Redstart1.mp3","Wood Thrush 2.mp3","Winter Wren 2.mp3","h","2022-05-25 23:19:47","","","be81e7d9a9b77b828a6c90f3040b643f",0,"prolific","oaAlpha","",TRUE
138,1,"audio-keyboard-response",23,130282,"0.0-16.0-1.0-0.0","5f876d20868e33189340086b","","","","","",2661,"Western Meadowlark2.mp3","h",TRUE,"5f876d20868e33189340086b","5","American Redstart2.mp3","Whitecrowned Sparrow 2.mp3","Western Meadowlark2.mp3","h","2022-05-25 23:19:47","","","be81e7d9a9b77b828a6c90f3040b643f",0,"prolific","oaAlpha","",TRUE
138,1,"audio-keyboard-response",27,141061,"0.0-18.0-2.0-0.0","5f876d20868e33189340086b","","","","","",1011,"American Redstart3.mp3","h",TRUE,"5f876d20868e33189340086b","6","American Redstart3.mp3","Vesper Sparrow 2.mp3","Veery2.mp3","h","2022-05-25 23:19:47","","","be81e7d9a9b77b828a6c90f3040b643f",0,"prolific","oaAlpha","",TRUE
138,1,"audio-keyboard-response",31,163918,"0.0-21.0-1.0-0.0","5f876d20868e33189340086b","","","","","",1680,"American Robin1.mp3","g",TRUE,"5f876d20868e33189340086b","7","American Robin1.mp3","Hooded Warbler3.mp3","Sedge Wren7.mp3","g","2022-05-25 23:19:47","","","be81e7d9a9b77b828a6c90f3040b643f",0,"prolific","oaAlpha","",TRUE
138,1,"audio-keyboard-response",34,170360,"0.0-23.0-1.0-0.0","5f876d20868e33189340086b","","","","","",2051,"Brown Thrasher 3.mp3","h",TRUE,"5f876d20868e33189340086b","8","American Robin2.mp3","Brown Thrasher 3.mp3","Eurasian Blackbird3.mp3","f","2022-05-25 23:19:47","","","be81e7d9a9b77b828a6c90f3040b643f",0,"prolific","oaAlpha","",FALSE
138,1,"audio-keyboard-response",39,182110,"0.0-25.1-0.1","5f876d20868e33189340086b","","","","","",1061,"American Robin3.mp3","f",TRUE,"5f876d20868e33189340086b","9","American Robin3.mp3","Connecticut Warbler 3.mp3","Gray Catbird 3.mp3","f","2022-05-25 23:19:47","","","be81e7d9a9b77b828a6c90f3040b643f",0,"prolific","oaAlpha","",TRUE
138,1,"audio-keyboard-response",42,198574,"0.0-28.0-0.0","5f876d20868e33189340086b","","","","","",1920,"Blackpoll Warbler1.mp3","f",TRUE,"5f876d20868e33189340086b","10","Blackpoll Warbler1.mp3","Wood Thrush 4.mp3","Whitecrowned Sparrow4.mp3","f","2022-05-25 23:19:47","","","be81e7d9a9b77b828a6c90f3040b643f",0,"prolific","oaAlpha","",TRUE
138,1,"audio-keyboard-response",45,208044,"0.0-30.0-1.0-0.0","5f876d20868e33189340086b","","","","","",1891,"Eurasian Blackbird 11.mp3","h",TRUE,"5f876d20868e33189340086b","11","Blackpoll Warbler 11.mp3","Cerulean Warbler 11.mp3","Eurasian Blackbird 11.mp3","h","2022-05-25 23:19:47","","","be81e7d9a9b77b828a6c90f3040b643f",0,"prolific","oaAlpha","",TRUE
138,1,"audio-keyboard-response",49,217116,"0.0-32.0-2.0-0.0","5f876d20868e33189340086b","","","","","",1421,"Swainsons Thrush 4.mp3","f",TRUE,"5f876d20868e33189340086b","12","Blackpoll Warbler3.mp3","Veery4.mp3","Swainsons Thrush 4.mp3","f","2022-05-25 23:19:47","","","be81e7d9a9b77b828a6c90f3040b643f",0,"prolific","oaAlpha","",TRUE
138,1,"audio-keyboard-response",52,232832,"0.0-35.0-0.0","5f876d20868e33189340086b","","","","","",1192,"Blackthroated Green Warbler1.mp3","f",TRUE,"5f876d20868e33189340086b","13","Blackthroated Green Warbler1.mp3","Northern Cardinal 5.mp3","Sedge Wren 5.mp3","f","2022-05-25 23:19:47","","","be81e7d9a9b77b828a6c90f3040b643f",0,"prolific","oaAlpha","",TRUE
138,1,"audio-keyboard-response",55,236889,"0.0-37.0-1.0-0.0","5f876d20868e33189340086b","","","","","",779,"Blackthroated Green Warbler 2.mp3","g",TRUE,"5f876d20868e33189340086b","14","Blackthroated Green Warbler 2.mp3","Northern Mockingbird 5.mp3","House Finch 5.mp3","g","2022-05-25 23:19:47","","","be81e7d9a9b77b828a6c90f3040b643f",0,"prolific","oaAlpha","",TRUE
138,1,"audio-keyboard-response",58,241728,"0.0-39.0-1.0-0.0","5f876d20868e33189340086b","","","","","",1368,"Gray Catbird 5.mp3","h",TRUE,"5f876d20868e33189340086b","15","Blackthroated Green Warbler 3.mp3","Hermit Thrush 5.mp3","Gray Catbird 5.mp3","h","2022-05-25 23:19:47","","","be81e7d9a9b77b828a6c90f3040b643f",0,"prolific","oaAlpha","",TRUE
138,1,"audio-keyboard-response",62,260880,"0.0-42.0-1.0-0.0","5f876d20868e33189340086b","","","","","",1371,"Chipping Sparrow1.mp3","g",TRUE,"5f876d20868e33189340086b","16","Chipping Sparrow1.mp3","Western Meadowlark 6.mp3","Hooded Warbler 6.mp3","g","2022-05-25 23:19:47","","","be81e7d9a9b77b828a6c90f3040b643f",0,"prolific","oaAlpha","",TRUE
138,1,"audio-keyboard-response",65,265351,"0.0-44.0-1.0-0.0","5f876d20868e33189340086b","","","","","",1072,"Hermit Thrush 6.mp3","h",TRUE,"5f876d20868e33189340086b","17","Chipping Sparrow2.mp3","Swainsons Thrush 6.mp3","Hermit Thrush 6.mp3","h","2022-05-25 23:19:47","","","be81e7d9a9b77b828a6c90f3040b643f",0,"prolific","oaAlpha","",TRUE
138,1,"audio-keyboard-response",68,272263,"0.0-46.0-1.0-0.0","5f876d20868e33189340086b","","","","","",1960,"Housefinch 18.mp3","h",TRUE,"5f876d20868e33189340086b","18","Chipping Sparrow3.mp3","Gray Catbird 18.mp3","Housefinch 18.mp3","h","2022-05-25 23:19:47","","","be81e7d9a9b77b828a6c90f3040b643f",0,"prolific","oaAlpha","",TRUE
138,1,"audio-keyboard-response",81,398526,"0.0-56.1-0.1","5f876d20868e33189340086b","","","","","",1061,"Graycheeked Thrush3.mp3","h",TRUE,"5f876d20868e33189340086b","19","American Robin4.mp3","Graycheeked Thrush3.mp3","Hermit Thrush 3.mp3","h","2022-05-25 23:19:47","","","be81e7d9a9b77b828a6c90f3040b643f",0,"prolific","oaAlpha","",TRUE
138,1,"audio-keyboard-response",86,407432,"0.0-58.1-0.1","5f876d20868e33189340086b","","","","","",1171,"Blackpoll Warbler4.mp3","f",TRUE,"5f876d20868e33189340086b","20","Blackpoll Warbler4.mp3","Sedge Wren4.mp3","Rubycrowned Kinglet4.mp3","f","2022-05-25 23:19:47","","","be81e7d9a9b77b828a6c90f3040b643f",0,"prolific","oaAlpha","",TRUE
138,1,"audio-keyboard-response",89,412812,"0.0-60.0-1.0-0.0","5f876d20868e33189340086b","","","","","",1749,"American Robin5.mp3","g",TRUE,"5f876d20868e33189340086b","21","American Robin5.mp3","Western Meadowlark3.mp3","Vesper Sparrow3.mp3","g","2022-05-25 23:19:47","","","be81e7d9a9b77b828a6c90f3040b643f",0,"prolific","oaAlpha","",TRUE
138,1,"audio-keyboard-response",93,421206,"0.0-62.0-2.0-0.0","5f876d20868e33189340086b","","","","","",1240,"Northern Cardinal6.mp3","f",TRUE,"5f876d20868e33189340086b","22","Chipping Sparrow4.mp3","Veery6.mp3","Northern Cardinal6.mp3","f","2022-05-25 23:19:47","","","be81e7d9a9b77b828a6c90f3040b643f",0,"prolific","oaAlpha","",TRUE
138,1,"audio-keyboard-response",97,431484,"0.0-64.0-2.0-0.0","5f876d20868e33189340086b","","","","","",1240,"American Robin7.mp3","h",TRUE,"5f876d20868e33189340086b","23","American Robin7.mp3","Rubycrowned Kinglet3.mp3","Swainsons Thrush3.mp3","h","2022-05-25 23:19:47","","","be81e7d9a9b77b828a6c90f3040b643f",0,"prolific","oaAlpha","",TRUE
138,1,"audio-keyboard-response",101,444934,"0.0-66.0-2.0-0.0","5f876d20868e33189340086b","","","","","",2640,"Rubycrowned Kinglet1.mp3","g",TRUE,"5f876d20868e33189340086b","24","Acadian Flycatcher 7.mp3","House Finch1.mp3","Rubycrowned Kinglet1.mp3","g","2022-05-25 23:19:47","","","be81e7d9a9b77b828a6c90f3040b643f",0,"prolific","oaAlpha","",TRUE
138,1,"audio-keyboard-response",109,470813,"0.0-71.1-0.1","5f876d20868e33189340086b","","","","","",371,"Hooded Warbler1.mp3","h",TRUE,"5f876d20868e33189340086b","25","Acadian Flycatcher 4.mp3","Hooded Warbler1.mp3","Northern Cardinal1.mp3","h","2022-05-25 23:19:47","","","be81e7d9a9b77b828a6c90f3040b643f",0,"prolific","oaAlpha","",TRUE
138,1,"audio-keyboard-response",114,485515,"0.0-73.1-0.1","5f876d20868e33189340086b","","","","","",1861,"Lincolns Sparrow5.mp3","h",TRUE,"5f876d20868e33189340086b","26","Blackthroated Green Warbler5.mp3","Lincolns Sparrow5.mp3","Rubycrowned Kinglet5.mp3","h","2022-05-25 23:19:47","","","be81e7d9a9b77b828a6c90f3040b643f",0,"prolific","oaAlpha","",TRUE
138,1,"audio-keyboard-response",118,493494,"0.0-75.0-2.0-0.0","5f876d20868e33189340086b","","","","","",1891,"American Robin6.mp3","h",TRUE,"5f876d20868e33189340086b","27","American Robin6.mp3","Carolina Wren3.mp3","Northern Mockingbird3.mp3","h","2022-05-25 23:19:47","","","be81e7d9a9b77b828a6c90f3040b643f",0,"prolific","oaAlpha","",TRUE
138,1,"audio-keyboard-response",123,505115,"0.0-77.1-0.1","5f876d20868e33189340086b","","","","","",32,"Acadian Flycatcher 8.mp3","f",TRUE,"5f876d20868e33189340086b","28","Acadian Flycatcher 8.mp3","Swainsons Thrush1.mp3","Yellow Warbler Northern1.mp3","f","2022-05-25 23:19:47","","","be81e7d9a9b77b828a6c90f3040b643f",0,"prolific","oaAlpha","",TRUE
138,1,"audio-keyboard-response",128,514193,"0.0-79.1-0.1","5f876d20868e33189340086b","","","","","",1011,"Graycheeked Thrush5.mp3","h",TRUE,"5f876d20868e33189340086b","29","Blackthroated Green Warbler4.mp3","Graycheeked Thrush5.mp3","Eurasian Blackbird5.mp3","h","2022-05-25 23:19:47","","","be81e7d9a9b77b828a6c90f3040b643f",0,"prolific","oaAlpha","",TRUE
138,1,"audio-keyboard-response",135,528534,"0.0-81.1-2.1-0.1","5f876d20868e33189340086b","","","","","",1608,"House Finch2.mp3","f",TRUE,"5f876d20868e33189340086b","30","American Redstart 4.mp3","Swainsons Thrush2.mp3","House Finch2.mp3","g","2022-05-25 23:19:47","","","be81e7d9a9b77b828a6c90f3040b643f",0,"prolific","oaAlpha","",FALSE
138,1,"audio-keyboard-response",139,537502,"0.0-83.0-2.0-0.0","5f876d20868e33189340086b","","","","","",2349,"Blackthroated Green Warbler6.mp3","h",TRUE,"5f876d20868e33189340086b","31","Blackthroated Green Warbler6.mp3","Ovenbird5.mp3","Hooded Warbler5.mp3","h","2022-05-25 23:19:47","","","be81e7d9a9b77b828a6c90f3040b643f",0,"prolific","oaAlpha","",TRUE
138,1,"audio-keyboard-response",144,547006,"0.0-85.1-0.1","5f876d20868e33189340086b","","","","","",200,"Yellow Warbler Northern4.mp3","f",TRUE,"5f876d20868e33189340086b","32","Blackpoll Warbler6.mp3","Yellow Warbler Northern4.mp3","Northern Cardinal4.mp3","h","2022-05-25 23:19:47","","","be81e7d9a9b77b828a6c90f3040b643f",0,"prolific","oaAlpha","",FALSE
138,1,"audio-keyboard-response",148,554810,"0.0-87.0-2.0-0.0","5f876d20868e33189340086b","","","","","",2280,"Acadian Flycatcher 6.mp3","g",TRUE,"5f876d20868e33189340086b","33","Acadian Flycatcher 6.mp3","Connecticut Warbler1.mp3","Graycheeked Thrush1.mp3","h","2022-05-25 23:19:47","","","be81e7d9a9b77b828a6c90f3040b643f",0,"prolific","oaAlpha","",FALSE
138,1,"audio-keyboard-response",153,569105,"0.0-89.1-0.1","5f876d20868e33189340086b","","","","","",2440,"Winter Wren6.mp3","h",TRUE,"5f876d20868e33189340086b","34","Chipping Sparrow8.mp3","Winter Wren6.mp3","Lincolns Sparrow6.mp3","g","2022-05-25 23:19:47","","","be81e7d9a9b77b828a6c90f3040b643f",0,"prolific","oaAlpha","",FALSE
138,1,"audio-keyboard-response",157,577443,"0.0-91.0-2.0-0.0","5f876d20868e33189340086b","","","","","",2360,"Blackpoll Warbler8.mp3","g",TRUE,"5f876d20868e33189340086b","35","Blackpoll Warbler8.mp3","Yellowthroated Warbler4.mp3","Hooded Warbler4.mp3","h","2022-05-25 23:19:47","","","be81e7d9a9b77b828a6c90f3040b643f",0,"prolific","oaAlpha","",FALSE
138,1,"audio-keyboard-response",162,586953,"0.0-93.1-0.1","5f876d20868e33189340086b","","","","","",611,"Lincolns Sparrow2.mp3","f",TRUE,"5f876d20868e33189340086b","36","American Redstart5.mp3","Lincolns Sparrow2.mp3","Hooded Warbler2.mp3","g","2022-05-25 23:19:47","","","be81e7d9a9b77b828a6c90f3040b643f",0,"prolific","oaAlpha","",FALSE
138,1,"audio-keyboard-response",166,597820,"0.0-95.0-2.0-0.0","5f876d20868e33189340086b","","","","","",2229,"Blackpoll Warbler5.mp3","h",TRUE,"5f876d20868e33189340086b","37","Blackpoll Warbler5.mp3","Tennessee Warbler4.mp3","Vesper Sparrow4.mp3","h","2022-05-25 23:19:47","","","be81e7d9a9b77b828a6c90f3040b643f",0,"prolific","oaAlpha","",TRUE
138,1,"audio-keyboard-response",170,606820,"0.0-97.0-2.0-0.0","5f876d20868e33189340086b","","","","","",1800,"Chipping Sparrow5.mp3","h",TRUE,"5f876d20868e33189340086b","38","Chipping Sparrow5.mp3","Ovenbird6.mp3","Northern Mockingbird6.mp3","h","2022-05-25 23:19:47","","","be81e7d9a9b77b828a6c90f3040b643f",0,"prolific","oaAlpha","",TRUE
138,1,"audio-keyboard-response",174,618540,"0.0-99.0-2.0-0.0","5f876d20868e33189340086b","","","","","",2091,"Acadian Flycatcher 5.mp3","g",TRUE,"5f876d20868e33189340086b","39","Acadian Flycatcher 5.mp3","Veery 39.mp3","Lincolns Sparrow1.mp3","h","2022-05-25 23:19:47","","","be81e7d9a9b77b828a6c90f3040b643f",0,"prolific","oaAlpha","",FALSE
138,1,"audio-keyboard-response",179,626430,"0.0-101.1-0.1","5f876d20868e33189340086b","","","","","",29,"Connecticut Warbler2.mp3","h",TRUE,"5f876d20868e33189340086b","40","American Redstart7.mp3","Connecticut Warbler2.mp3","Tennessee Warbler2.mp3","h","2022-05-25 23:19:47","","","be81e7d9a9b77b828a6c90f3040b643f",0,"prolific","oaAlpha","",TRUE
138,1,"audio-keyboard-response",183,633558,"0.0-103.0-2.0-0.0","5f876d20868e33189340086b","","","","","",2272,"Blackthroated Green Warbler7.mp3","h",TRUE,"5f876d20868e33189340086b","41","Blackthroated Green Warbler7.mp3","Connecticut Warbler5.mp3","Blackthroated Blue Warbler5.mp3","h","2022-05-25 23:19:47","","","be81e7d9a9b77b828a6c90f3040b643f",0,"prolific","oaAlpha","",TRUE
138,1,"audio-keyboard-response",187,643913,"0.0-105.0-2.0-0.0","5f876d20868e33189340086b","","","","","",2341,"Cerulean Warbler 42.mp3","f",TRUE,"5f876d20868e33189340086b","42","Blackpoll Warbler 42.mp3","Yellowrumped Warbler Myrtle4.mp3","Cerulean Warbler 42.mp3","f","2022-05-25 23:19:47","","","be81e7d9a9b77b828a6c90f3040b643f",0,"prolific","oaAlpha","",TRUE
138,1,"audio-keyboard-response",191,657264,"0.0-107.0-2.0-0.0","5f876d20868e33189340086b","","","","","",5011,"Rubycrowned Kinglet6.mp3","g",TRUE,"5f876d20868e33189340086b","43","Chipping Sparrow6.mp3","Tennessee Warbler.mp3","Rubycrowned Kinglet6.mp3","g","2022-05-25 23:19:47","","","be81e7d9a9b77b828a6c90f3040b643f",0,"prolific","oaAlpha","",TRUE
138,1,"audio-keyboard-response",196,665604,"0.0-109.1-0.1","5f876d20868e33189340086b","","","","","",651,"Yellow Warbler Northern5.mp3","h",TRUE,"5f876d20868e33189340086b","44","Blackthroated Green Warbler8.mp3","Yellow Warbler Northern5.mp3","Yellowrumped Warbler Myrtle5.mp3","h","2022-05-25 23:19:47","","","be81e7d9a9b77b828a6c90f3040b643f",0,"prolific","oaAlpha","",TRUE
138,1,"audio-keyboard-response",202,678000,"0.0-111.1-1.1-0.1","5f876d20868e33189340086b","","","","","",360,"American Redstart6.mp3","g",TRUE,"5f876d20868e33189340086b","45","American Redstart6.mp3","Yellowthroated Warbler2.mp3","Blackthroated Blue Warbler2.mp3","g","2022-05-25 23:19:47","","","be81e7d9a9b77b828a6c90f3040b643f",0,"prolific","oaAlpha","",TRUE
138,1,"audio-keyboard-response",206,688462,"0.0-113.0-2.0-0.0","5f876d20868e33189340086b","","","","","",3251,"Vesper Sparrow6.mp3","g",TRUE,"5f876d20868e33189340086b","46","Chipping Sparrow7.mp3","Whitecrowned Sparrow6.mp3","Vesper Sparrow6.mp3","f","2022-05-25 23:19:47","","","be81e7d9a9b77b828a6c90f3040b643f",0,"prolific","oaAlpha","",FALSE
138,1,"audio-keyboard-response",211,699670,"0.0-115.1-0.1","5f876d20868e33189340086b","","","","","",581,"Northern Cardinal3.mp3","g",TRUE,"5f876d20868e33189340086b","47","American Robin8.mp3","Northern Cardinal3.mp3","Ovenbird3.mp3","h","2022-05-25 23:19:47","","","be81e7d9a9b77b828a6c90f3040b643f",0,"prolific","oaAlpha","",FALSE
138,1,"audio-keyboard-response",216,706682,"0.0-117.1-0.1","5f876d20868e33189340086b","","","","","",131,"Yellowrumped Warbler Myrtle2.mp3","h",TRUE,"5f876d20868e33189340086b","48","American Redstart 48.mp3","Yellowrumped Warbler Myrtle2.mp3","Northern Mockingbird 48.mp3","h","2022-05-25 23:19:47","","","be81e7d9a9b77b828a6c90f3040b643f",0,"prolific","oaAlpha","",TRUE
141,1,"audio-keyboard-response",10,84421,"0.0-7.0-2.0-0.0","61187c45d93e3453dc89ec8e","","","","","",4891,"Acadian Flycatcher 1.mp3","h",TRUE,"61187c45d93e3453dc89ec8e","1","Acadian Flycatcher 1.mp3","Blackthroated Blue Warbler 1.mp3","Brown Thrasher 1.mp3","h","2022-05-25 23:26:28","","","be81e7d9a9b77b828a6c90f3040b643f",0,"prolific","oaAlpha","",TRUE
141,1,"audio-keyboard-response",16,113646,"0.0-9.1-1.1-0.1","61187c45d93e3453dc89ec8e","","","","","",3680,"Acadian Flycatcher 2.mp3","g",TRUE,"61187c45d93e3453dc89ec8e","2","Acadian Flycatcher 2.mp3","Carolina Wren 1.mp3","Eastern Towhee 1.mp3","g","2022-05-25 23:26:28","","","be81e7d9a9b77b828a6c90f3040b643f",0,"prolific","oaAlpha","",TRUE
141,1,"audio-keyboard-response",22,138067,"0.0-11.1-1.1-0.1","61187c45d93e3453dc89ec8e","","","","","",3829,"Acadian Flycatcher 3.mp3","g",TRUE,"61187c45d93e3453dc89ec8e","3","Acadian Flycatcher 3.mp3","Eurasian Blackbird 1.mp3","Hermit Thrush 1.mp3","g","2022-05-25 23:26:28","","","be81e7d9a9b77b828a6c90f3040b643f",0,"prolific","oaAlpha","",TRUE
141,1,"audio-keyboard-response",27,164938,"0.0-14.0-2.0-0.0","61187c45d93e3453dc89ec8e","","","","","",2171,"American Redstart1.mp3","h",TRUE,"61187c45d93e3453dc89ec8e","4","American Redstart1.mp3","Wood Thrush 2.mp3","Winter Wren 2.mp3","h","2022-05-25 23:26:28","","","be81e7d9a9b77b828a6c90f3040b643f",0,"prolific","oaAlpha","",TRUE
141,1,"audio-keyboard-response",31,176676,"0.0-16.0-2.0-0.0","61187c45d93e3453dc89ec8e","","","","","",2869,"American Redstart2.mp3","h",TRUE,"61187c45d93e3453dc89ec8e","5","American Redstart2.mp3","Whitecrowned Sparrow 2.mp3","Western Meadowlark2.mp3","h","2022-05-25 23:26:28","","","be81e7d9a9b77b828a6c90f3040b643f",0,"prolific","oaAlpha","",TRUE
141,1,"audio-keyboard-response",35,188480,"0.0-18.0-2.0-0.0","61187c45d93e3453dc89ec8e","","","","","",2051,"American Redstart3.mp3","h",TRUE,"61187c45d93e3453dc89ec8e","6","American Redstart3.mp3","Vesper Sparrow 2.mp3","Veery2.mp3","h","2022-05-25 23:26:28","","","be81e7d9a9b77b828a6c90f3040b643f",0,"prolific","oaAlpha","",TRUE
141,1,"audio-keyboard-response",39,211264,"0.0-21.0-1.0-0.0","61187c45d93e3453dc89ec8e","","","","","",1629,"American Robin1.mp3","g",TRUE,"61187c45d93e3453dc89ec8e","7","American Robin1.mp3","Hooded Warbler3.mp3","Sedge Wren7.mp3","g","2022-05-25 23:26:28","","","be81e7d9a9b77b828a6c90f3040b643f",0,"prolific","oaAlpha","",TRUE
141,1,"audio-keyboard-response",44,227202,"0.0-23.1-0.1","61187c45d93e3453dc89ec8e","","","","","",2909,"American Robin2.mp3","f",TRUE,"61187c45d93e3453dc89ec8e","8","American Robin2.mp3","Brown Thrasher 3.mp3","Eurasian Blackbird3.mp3","f","2022-05-25 23:26:28","","","be81e7d9a9b77b828a6c90f3040b643f",0,"prolific","oaAlpha","",TRUE
141,1,"audio-keyboard-response",49,239657,"0.0-25.1-0.1","61187c45d93e3453dc89ec8e","","","","","",1811,"American Robin3.mp3","f",TRUE,"61187c45d93e3453dc89ec8e","9","American Robin3.mp3","Connecticut Warbler 3.mp3","Gray Catbird 3.mp3","f","2022-05-25 23:26:28","","","be81e7d9a9b77b828a6c90f3040b643f",0,"prolific","oaAlpha","",TRUE
141,1,"audio-keyboard-response",55,265815,"0.0-28.1-0.1","61187c45d93e3453dc89ec8e","","","","","",1440,"Blackpoll Warbler1.mp3","f",TRUE,"61187c45d93e3453dc89ec8e","10","Blackpoll Warbler1.mp3","Wood Thrush 4.mp3","Whitecrowned Sparrow4.mp3","f","2022-05-25 23:26:28","","","be81e7d9a9b77b828a6c90f3040b643f",0,"prolific","oaAlpha","",TRUE
141,1,"audio-keyboard-response",62,300336,"0.0-30.1-2.1-0.1","61187c45d93e3453dc89ec8e","","","","","",2531,"Blackpoll Warbler 11.mp3","h",TRUE,"61187c45d93e3453dc89ec8e","11","Blackpoll Warbler 11.mp3","Cerulean Warbler 11.mp3","Eurasian Blackbird 11.mp3","h","2022-05-25 23:26:28","","","be81e7d9a9b77b828a6c90f3040b643f",0,"prolific","oaAlpha","",TRUE
141,1,"audio-keyboard-response",65,304861,"0.0-32.0-1.0-0.0","61187c45d93e3453dc89ec8e","","","","","",0,"Veery4.mp3","f",TRUE,"61187c45d93e3453dc89ec8e","12","Blackpoll Warbler3.mp3","Veery4.mp3","Swainsons Thrush 4.mp3","f","2022-05-25 23:26:28","","","be81e7d9a9b77b828a6c90f3040b643f",0,"prolific","oaAlpha","",TRUE
141,1,"audio-keyboard-response",68,321292,"0.0-35.0-0.0","61187c45d93e3453dc89ec8e","","","","","",1941,"Blackthroated Green Warbler1.mp3","f",TRUE,"61187c45d93e3453dc89ec8e","13","Blackthroated Green Warbler1.mp3","Northern Cardinal 5.mp3","Sedge Wren 5.mp3","f","2022-05-25 23:26:28","","","be81e7d9a9b77b828a6c90f3040b643f",0,"prolific","oaAlpha","",TRUE
141,1,"audio-keyboard-response",71,326530,"0.0-37.0-1.0-0.0","61187c45d93e3453dc89ec8e","","","","","",1989,"Blackthroated Green Warbler 2.mp3","g",TRUE,"61187c45d93e3453dc89ec8e","14","Blackthroated Green Warbler 2.mp3","Northern Mockingbird 5.mp3","House Finch 5.mp3","g","2022-05-25 23:26:28","","","be81e7d9a9b77b828a6c90f3040b643f",0,"prolific","oaAlpha","",TRUE
141,1,"audio-keyboard-response",75,333708,"0.0-39.0-2.0-0.0","61187c45d93e3453dc89ec8e","","","","","",1669,"Blackthroated Green Warbler 3.mp3","h",TRUE,"61187c45d93e3453dc89ec8e","15","Blackthroated Green Warbler 3.mp3","Hermit Thrush 5.mp3","Gray Catbird 5.mp3","h","2022-05-25 23:26:28","","","be81e7d9a9b77b828a6c90f3040b643f",0,"prolific","oaAlpha","",TRUE
141,1,"audio-keyboard-response",79,353568,"0.0-42.0-1.0-0.0","61187c45d93e3453dc89ec8e","","","","","",2109,"Chipping Sparrow1.mp3","g",TRUE,"61187c45d93e3453dc89ec8e","16","Chipping Sparrow1.mp3","Western Meadowlark 6.mp3","Hooded Warbler 6.mp3","g","2022-05-25 23:26:28","","","be81e7d9a9b77b828a6c90f3040b643f",0,"prolific","oaAlpha","",TRUE
141,1,"audio-keyboard-response",83,361189,"0.0-44.0-2.0-0.0","61187c45d93e3453dc89ec8e","","","","","",2299,"Chipping Sparrow2.mp3","h",TRUE,"61187c45d93e3453dc89ec8e","17","Chipping Sparrow2.mp3","Swainsons Thrush 6.mp3","Hermit Thrush 6.mp3","h","2022-05-25 23:26:28","","","be81e7d9a9b77b828a6c90f3040b643f",0,"prolific","oaAlpha","",TRUE
141,1,"audio-keyboard-response",87,373340,"0.0-46.0-2.0-0.0","61187c45d93e3453dc89ec8e","","","","","",2941,"Chipping Sparrow3.mp3","h",TRUE,"61187c45d93e3453dc89ec8e","18","Chipping Sparrow3.mp3","Gray Catbird 18.mp3","Housefinch 18.mp3","h","2022-05-25 23:26:28","","","be81e7d9a9b77b828a6c90f3040b643f",0,"prolific","oaAlpha","",TRUE
141,1,"audio-keyboard-response",102,512003,"0.0-56.1-2.1-0.1","61187c45d93e3453dc89ec8e","","","","","",1971,"American Robin4.mp3","h",TRUE,"61187c45d93e3453dc89ec8e","19","American Robin4.mp3","Graycheeked Thrush3.mp3","Hermit Thrush 3.mp3","h","2022-05-25 23:26:28","","","be81e7d9a9b77b828a6c90f3040b643f",0,"prolific","oaAlpha","",TRUE
141,1,"audio-keyboard-response",107,521632,"0.0-58.1-0.1","61187c45d93e3453dc89ec8e","","","","","",1909,"Blackpoll Warbler4.mp3","f",TRUE,"61187c45d93e3453dc89ec8e","20","Blackpoll Warbler4.mp3","Sedge Wren4.mp3","Rubycrowned Kinglet4.mp3","f","2022-05-25 23:26:28","","","be81e7d9a9b77b828a6c90f3040b643f",0,"prolific","oaAlpha","",TRUE
141,1,"audio-keyboard-response",113,535985,"0.0-60.1-1.1-0.1","61187c45d93e3453dc89ec8e","","","","","",1979,"American Robin5.mp3","g",TRUE,"61187c45d93e3453dc89ec8e","21","American Robin5.mp3","Western Meadowlark3.mp3","Vesper Sparrow3.mp3","g","2022-05-25 23:26:28","","","be81e7d9a9b77b828a6c90f3040b643f",0,"prolific","oaAlpha","",TRUE
141,1,"audio-keyboard-response",118,548288,"0.0-62.1-0.1","61187c45d93e3453dc89ec8e","","","","","",949,"Chipping Sparrow4.mp3","f",TRUE,"61187c45d93e3453dc89ec8e","22","Chipping Sparrow4.mp3","Veery6.mp3","Northern Cardinal6.mp3","f","2022-05-25 23:26:28","","","be81e7d9a9b77b828a6c90f3040b643f",0,"prolific","oaAlpha","",TRUE
141,1,"audio-keyboard-response",125,569240,"0.0-64.1-2.1-0.1","61187c45d93e3453dc89ec8e","","","","","",1360,"American Robin7.mp3","h",TRUE,"61187c45d93e3453dc89ec8e","23","American Robin7.mp3","Rubycrowned Kinglet3.mp3","Swainsons Thrush3.mp3","h","2022-05-25 23:26:28","","","be81e7d9a9b77b828a6c90f3040b643f",0,"prolific","oaAlpha","",TRUE
141,1,"audio-keyboard-response",131,593830,"0.0-66.1-1.1-0.1","61187c45d93e3453dc89ec8e","","","","","",5739,"Acadian Flycatcher 7.mp3","g",TRUE,"61187c45d93e3453dc89ec8e","24","Acadian Flycatcher 7.mp3","House Finch1.mp3","Rubycrowned Kinglet1.mp3","g","2022-05-25 23:26:28","","","be81e7d9a9b77b828a6c90f3040b643f",0,"prolific","oaAlpha","",TRUE
141,1,"audio-keyboard-response",142,629281,"0.0-71.1-2.1-0.1","61187c45d93e3453dc89ec8e","","","","","",3219,"Acadian Flycatcher 4.mp3","h",TRUE,"61187c45d93e3453dc89ec8e","25","Acadian Flycatcher 4.mp3","Hooded Warbler1.mp3","Northern Cardinal1.mp3","h","2022-05-25 23:26:28","","","be81e7d9a9b77b828a6c90f3040b643f",0,"prolific","oaAlpha","",TRUE
141,1,"audio-keyboard-response",147,644267,"0.0-73.1-0.1","61187c45d93e3453dc89ec8e","","","","","",2219,"Lincolns Sparrow5.mp3","f",TRUE,"61187c45d93e3453dc89ec8e","26","Blackthroated Green Warbler5.mp3","Lincolns Sparrow5.mp3","Rubycrowned Kinglet5.mp3","h","2022-05-25 23:26:28","","","be81e7d9a9b77b828a6c90f3040b643f",0,"prolific","oaAlpha","",FALSE
141,1,"audio-keyboard-response",154,659429,"0.0-75.1-2.1-0.1","61187c45d93e3453dc89ec8e","","","","","",1640,"American Robin6.mp3","h",TRUE,"61187c45d93e3453dc89ec8e","27","American Robin6.mp3","Carolina Wren3.mp3","Northern Mockingbird3.mp3","h","2022-05-25 23:26:28","","","be81e7d9a9b77b828a6c90f3040b643f",0,"prolific","oaAlpha","",TRUE
141,1,"audio-keyboard-response",159,672293,"0.0-77.1-0.1","61187c45d93e3453dc89ec8e","","","","","",1320,"Acadian Flycatcher 8.mp3","f",TRUE,"61187c45d93e3453dc89ec8e","28","Acadian Flycatcher 8.mp3","Swainsons Thrush1.mp3","Yellow Warbler Northern1.mp3","f","2022-05-25 23:26:28","","","be81e7d9a9b77b828a6c90f3040b643f",0,"prolific","oaAlpha","",TRUE
141,1,"audio-keyboard-response",166,686577,"0.0-79.1-2.1-0.1","61187c45d93e3453dc89ec8e","","","","","",1680,"Blackthroated Green Warbler4.mp3","h",TRUE,"61187c45d93e3453dc89ec8e","29","Blackthroated Green Warbler4.mp3","Graycheeked Thrush5.mp3","Eurasian Blackbird5.mp3","h","2022-05-25 23:26:28","","","be81e7d9a9b77b828a6c90f3040b643f",0,"prolific","oaAlpha","",TRUE
141,1,"audio-keyboard-response",172,698918,"0.0-81.1-1.1-0.1","61187c45d93e3453dc89ec8e","","","","","",1891,"American Redstart 4.mp3","g",TRUE,"61187c45d93e3453dc89ec8e","30","American Redstart 4.mp3","Swainsons Thrush2.mp3","House Finch2.mp3","g","2022-05-25 23:26:28","","","be81e7d9a9b77b828a6c90f3040b643f",0,"prolific","oaAlpha","",TRUE
141,1,"audio-keyboard-response",179,715016,"0.0-83.1-2.1-0.1","61187c45d93e3453dc89ec8e","","","","","",1331,"Blackthroated Green Warbler6.mp3","h",TRUE,"61187c45d93e3453dc89ec8e","31","Blackthroated Green Warbler6.mp3","Ovenbird5.mp3","Hooded Warbler5.mp3","h","2022-05-25 23:26:28","","","be81e7d9a9b77b828a6c90f3040b643f",0,"prolific","oaAlpha","",TRUE
141,1,"audio-keyboard-response",186,731115,"0.0-85.1-2.1-0.1","61187c45d93e3453dc89ec8e","","","","","",1339,"Blackpoll Warbler6.mp3","h",TRUE,"61187c45d93e3453dc89ec8e","32","Blackpoll Warbler6.mp3","Yellow Warbler Northern4.mp3","Northern Cardinal4.mp3","h","2022-05-25 23:26:28","","","be81e7d9a9b77b828a6c90f3040b643f",0,"prolific","oaAlpha","",TRUE
141,1,"audio-keyboard-response",190,741752,"0.0-87.0-2.0-0.0","61187c45d93e3453dc89ec8e","","","","","",5171,"Acadian Flycatcher 6.mp3","h",TRUE,"61187c45d93e3453dc89ec8e","33","Acadian Flycatcher 6.mp3","Connecticut Warbler1.mp3","Graycheeked Thrush1.mp3","h","2022-05-25 23:26:28","","","be81e7d9a9b77b828a6c90f3040b643f",0,"prolific","oaAlpha","",TRUE
141,1,"audio-keyboard-response",195,754090,"0.0-89.1-0.1","61187c45d93e3453dc89ec8e","","","","","",560,"Winter Wren6.mp3","f",TRUE,"61187c45d93e3453dc89ec8e","34","Chipping Sparrow8.mp3","Winter Wren6.mp3","Lincolns Sparrow6.mp3","g","2022-05-25 23:26:28","","","be81e7d9a9b77b828a6c90f3040b643f",0,"prolific","oaAlpha","",FALSE
141,1,"audio-keyboard-response",199,762245,"0.0-91.0-2.0-0.0","61187c45d93e3453dc89ec8e","","","","","",2261,"Blackpoll Warbler8.mp3","h",TRUE,"61187c45d93e3453dc89ec8e","35","Blackpoll Warbler8.mp3","Yellowthroated Warbler4.mp3","Hooded Warbler4.mp3","h","2022-05-25 23:26:28","","","be81e7d9a9b77b828a6c90f3040b643f",0,"prolific","oaAlpha","",TRUE
141,1,"audio-keyboard-response",206,778183,"0.0-93.1-2.1-0.1","61187c45d93e3453dc89ec8e","","","","","",1680,"Hooded Warbler2.mp3","h",TRUE,"61187c45d93e3453dc89ec8e","36","American Redstart5.mp3","Lincolns Sparrow2.mp3","Hooded Warbler2.mp3","g","2022-05-25 23:26:28","","","be81e7d9a9b77b828a6c90f3040b643f",0,"prolific","oaAlpha","",FALSE
141,1,"audio-keyboard-response",211,791744,"0.0-95.1-0.1","61187c45d93e3453dc89ec8e","","","","","",2288,"Tennessee Warbler4.mp3","f",TRUE,"61187c45d93e3453dc89ec8e","37","Blackpoll Warbler5.mp3","Tennessee Warbler4.mp3","Vesper Sparrow4.mp3","h","2022-05-25 23:26:28","","","be81e7d9a9b77b828a6c90f3040b643f",0,"prolific","oaAlpha","",FALSE
141,1,"audio-keyboard-response",215,801162,"0.0-97.0-2.0-0.0","61187c45d93e3453dc89ec8e","","","","","",2251,"Chipping Sparrow5.mp3","h",TRUE,"61187c45d93e3453dc89ec8e","38","Chipping Sparrow5.mp3","Ovenbird6.mp3","Northern Mockingbird6.mp3","h","2022-05-25 23:26:28","","","be81e7d9a9b77b828a6c90f3040b643f",0,"prolific","oaAlpha","",TRUE
141,1,"audio-keyboard-response",222,826502,"0.0-99.1-2.1-0.1","61187c45d93e3453dc89ec8e","","","","","",920,"Acadian Flycatcher 5.mp3","h",TRUE,"61187c45d93e3453dc89ec8e","39","Acadian Flycatcher 5.mp3","Veery 39.mp3","Lincolns Sparrow1.mp3","h","2022-05-25 23:26:28","","","be81e7d9a9b77b828a6c90f3040b643f",0,"prolific","oaAlpha","",TRUE
141,1,"audio-keyboard-response",228,836594,"0.0-101.1-1.1-0.1","61187c45d93e3453dc89ec8e","","","","","",429,"Tennessee Warbler2.mp3","g",TRUE,"61187c45d93e3453dc89ec8e","40","American Redstart7.mp3","Connecticut Warbler2.mp3","Tennessee Warbler2.mp3","h","2022-05-25 23:26:28","","","be81e7d9a9b77b828a6c90f3040b643f",0,"prolific","oaAlpha","",FALSE
141,1,"audio-keyboard-response",237,853152,"0.0-103.2-1.2-0.2","61187c45d93e3453dc89ec8e","","","","","",469,"Blackthroated Blue Warbler5.mp3","g",TRUE,"61187c45d93e3453dc89ec8e","41","Blackthroated Green Warbler7.mp3","Connecticut Warbler5.mp3","Blackthroated Blue Warbler5.mp3","h","2022-05-25 23:26:28","","","be81e7d9a9b77b828a6c90f3040b643f",0,"prolific","oaAlpha","",FALSE
141,1,"audio-keyboard-response",242,865189,"0.0-105.1-0.1","61187c45d93e3453dc89ec8e","","","","","",1339,"Blackpoll Warbler 42.mp3","f",TRUE,"61187c45d93e3453dc89ec8e","42","Blackpoll Warbler 42.mp3","Yellowrumped Warbler Myrtle4.mp3","Cerulean Warbler 42.mp3","f","2022-05-25 23:26:28","","","be81e7d9a9b77b828a6c90f3040b643f",0,"prolific","oaAlpha","",TRUE
141,1,"audio-keyboard-response",247,880029,"0.0-107.1-0.1","61187c45d93e3453dc89ec8e","","","","","",408,"Tennessee Warbler.mp3","f",TRUE,"61187c45d93e3453dc89ec8e","43","Chipping Sparrow6.mp3","Tennessee Warbler.mp3","Rubycrowned Kinglet6.mp3","g","2022-05-25 23:26:28","","","be81e7d9a9b77b828a6c90f3040b643f",0,"prolific","oaAlpha","",FALSE
141,1,"audio-keyboard-response",253,891038,"0.0-109.1-1.1-0.1","61187c45d93e3453dc89ec8e","","","","","",1611,"Yellowrumped Warbler Myrtle5.mp3","g",TRUE,"61187c45d93e3453dc89ec8e","44","Blackthroated Green Warbler8.mp3","Yellow Warbler Northern5.mp3","Yellowrumped Warbler Myrtle5.mp3","h","2022-05-25 23:26:28","","","be81e7d9a9b77b828a6c90f3040b643f",0,"prolific","oaAlpha","",FALSE
141,1,"audio-keyboard-response",261,908109,"0.0-111.2-0.2","61187c45d93e3453dc89ec8e","","","","","",499,"Yellowthroated Warbler2.mp3","f",TRUE,"61187c45d93e3453dc89ec8e","45","American Redstart6.mp3","Yellowthroated Warbler2.mp3","Blackthroated Blue Warbler2.mp3","g","2022-05-25 23:26:28","","","be81e7d9a9b77b828a6c90f3040b643f",0,"prolific","oaAlpha","",FALSE
141,1,"audio-keyboard-response",266,920045,"0.0-113.1-0.1","61187c45d93e3453dc89ec8e","","","","","",1109,"Chipping Sparrow7.mp3","f",TRUE,"61187c45d93e3453dc89ec8e","46","Chipping Sparrow7.mp3","Whitecrowned Sparrow6.mp3","Vesper Sparrow6.mp3","f","2022-05-25 23:26:28","","","be81e7d9a9b77b828a6c90f3040b643f",0,"prolific","oaAlpha","",TRUE
141,1,"audio-keyboard-response",275,944393,"0.0-115.2-1.2-0.2","61187c45d93e3453dc89ec8e","","","","","",611,"Ovenbird3.mp3","g",TRUE,"61187c45d93e3453dc89ec8e","47","American Robin8.mp3","Northern Cardinal3.mp3","Ovenbird3.mp3","h","2022-05-25 23:26:28","","","be81e7d9a9b77b828a6c90f3040b643f",0,"prolific","oaAlpha","",FALSE
141,1,"audio-keyboard-response",282,956229,"0.0-117.1-2.1-0.1","61187c45d93e3453dc89ec8e","","","","","",989,"American Redstart 48.mp3","h",TRUE,"61187c45d93e3453dc89ec8e","48","American Redstart 48.mp3","Yellowrumped Warbler Myrtle2.mp3","Northern Mockingbird 48.mp3","h","2022-05-25 23:26:28","","","be81e7d9a9b77b828a6c90f3040b643f",0,"prolific","oaAlpha","",TRUE
149,1,"audio-keyboard-response",11,80426,"0.0-7.1-0.1","5b53cc31c09af90001f113d4","","","","","",5061,"Blackthroated Blue Warbler 1.mp3","h",TRUE,"5b53cc31c09af90001f113d4","1","Acadian Flycatcher 1.mp3","Blackthroated Blue Warbler 1.mp3","Brown Thrasher 1.mp3","h","2022-05-27 23:07:54","","","be81e7d9a9b77b828a6c90f3040b643f",0,"prolific","oaAlpha","",TRUE
149,1,"audio-keyboard-response",14,94004,"0.0-9.0-1.0-0.0","5b53cc31c09af90001f113d4","","","","","",6779,"Acadian Flycatcher 2.mp3","f",TRUE,"5b53cc31c09af90001f113d4","2","Acadian Flycatcher 2.mp3","Carolina Wren 1.mp3","Eastern Towhee 1.mp3","g","2022-05-27 23:07:54","","","be81e7d9a9b77b828a6c90f3040b643f",0,"prolific","oaAlpha","",FALSE
149,1,"audio-keyboard-response",17,103668,"0.0-11.0-1.0-0.0","5b53cc31c09af90001f113d4","","","","","",3992,"Acadian Flycatcher 3.mp3","f",TRUE,"5b53cc31c09af90001f113d4","3","Acadian Flycatcher 3.mp3","Eurasian Blackbird 1.mp3","Hermit Thrush 1.mp3","g","2022-05-27 23:07:54","","","be81e7d9a9b77b828a6c90f3040b643f",0,"prolific","oaAlpha","",FALSE
149,1,"audio-keyboard-response",22,130500,"0.0-14.0-2.0-0.0","5b53cc31c09af90001f113d4","","","","","",2101,"American Redstart1.mp3","h",TRUE,"5b53cc31c09af90001f113d4","4","American Redstart1.mp3","Wood Thrush 2.mp3","Winter Wren 2.mp3","h","2022-05-27 23:07:54","","","be81e7d9a9b77b828a6c90f3040b643f",0,"prolific","oaAlpha","",TRUE
149,1,"audio-keyboard-response",26,142695,"0.0-16.0-2.0-0.0","5b53cc31c09af90001f113d4","","","","","",3309,"American Redstart2.mp3","h",TRUE,"5b53cc31c09af90001f113d4","5","American Redstart2.mp3","Whitecrowned Sparrow 2.mp3","Western Meadowlark2.mp3","h","2022-05-27 23:07:54","","","be81e7d9a9b77b828a6c90f3040b643f",0,"prolific","oaAlpha","",TRUE
149,1,"audio-keyboard-response",32,161962,"0.0-18.1-1.1-0.1","5b53cc31c09af90001f113d4","","","","","",2280,"Veery2.mp3","g",TRUE,"5b53cc31c09af90001f113d4","6","American Redstart3.mp3","Vesper Sparrow 2.mp3","Veery2.mp3","h","2022-05-27 23:07:54","","","be81e7d9a9b77b828a6c90f3040b643f",0,"prolific","oaAlpha","",FALSE
149,1,"audio-keyboard-response",36,186333,"0.0-21.0-1.0-0.0","5b53cc31c09af90001f113d4","","","","","",3181,"American Robin1.mp3","g",TRUE,"5b53cc31c09af90001f113d4","7","American Robin1.mp3","Hooded Warbler3.mp3","Sedge Wren7.mp3","g","2022-05-27 23:07:54","","","be81e7d9a9b77b828a6c90f3040b643f",0,"prolific","oaAlpha","",TRUE
149,1,"audio-keyboard-response",41,200243,"0.0-23.1-0.1","5b53cc31c09af90001f113d4","","","","","",859,"American Robin2.mp3","f",TRUE,"5b53cc31c09af90001f113d4","8","American Robin2.mp3","Brown Thrasher 3.mp3","Eurasian Blackbird3.mp3","f","2022-05-27 23:07:54","","","be81e7d9a9b77b828a6c90f3040b643f",0,"prolific","oaAlpha","",TRUE
149,1,"audio-keyboard-response",46,212203,"0.0-25.1-0.1","5b53cc31c09af90001f113d4","","","","","",1259,"American Robin3.mp3","h",TRUE,"5b53cc31c09af90001f113d4","9","American Robin3.mp3","Connecticut Warbler 3.mp3","Gray Catbird 3.mp3","f","2022-05-27 23:07:54","","","be81e7d9a9b77b828a6c90f3040b643f",0,"prolific","oaAlpha","",FALSE
149,1,"audio-keyboard-response",51,235742,"0.0-28.0-2.0-0.0","5b53cc31c09af90001f113d4","","","","","",2912,"Whitecrowned Sparrow4.mp3","h",TRUE,"5b53cc31c09af90001f113d4","10","Blackpoll Warbler1.mp3","Wood Thrush 4.mp3","Whitecrowned Sparrow4.mp3","f","2022-05-27 23:07:54","","","be81e7d9a9b77b828a6c90f3040b643f",0,"prolific","oaAlpha","",FALSE
149,1,"audio-keyboard-response",54,247117,"0.0-30.0-1.0-0.0","5b53cc31c09af90001f113d4","","","","","",3808,"Eurasian Blackbird 11.mp3","g",TRUE,"5b53cc31c09af90001f113d4","11","Blackpoll Warbler 11.mp3","Cerulean Warbler 11.mp3","Eurasian Blackbird 11.mp3","h","2022-05-27 23:07:54","","","be81e7d9a9b77b828a6c90f3040b643f",0,"prolific","oaAlpha","",FALSE
149,1,"audio-keyboard-response",56,250767,"0.0-32.0-0.0","5b53cc31c09af90001f113d4","","","","","",2621,"Blackpoll Warbler3.mp3","f",TRUE,"5b53cc31c09af90001f113d4","12","Blackpoll Warbler3.mp3","Veery4.mp3","Swainsons Thrush 4.mp3","f","2022-05-27 23:07:54","","","be81e7d9a9b77b828a6c90f3040b643f",0,"prolific","oaAlpha","",TRUE
149,1,"audio-keyboard-response",59,267354,"0.0-35.0-0.0","5b53cc31c09af90001f113d4","","","","","",2059,"Blackthroated Green Warbler1.mp3","f",TRUE,"5b53cc31c09af90001f113d4","13","Blackthroated Green Warbler1.mp3","Northern Cardinal 5.mp3","Sedge Wren 5.mp3","f","2022-05-27 23:07:54","","","be81e7d9a9b77b828a6c90f3040b643f",0,"prolific","oaAlpha","",TRUE
149,1,"audio-keyboard-response",65,278802,"0.0-37.1-1.1-0.1","5b53cc31c09af90001f113d4","","","","","",1229,"Blackthroated Green Warbler 2.mp3","g",TRUE,"5b53cc31c09af90001f113d4","14","Blackthroated Green Warbler 2.mp3","Northern Mockingbird 5.mp3","House Finch 5.mp3","g","2022-05-27 23:07:54","","","be81e7d9a9b77b828a6c90f3040b643f",0,"prolific","oaAlpha","",TRUE
149,1,"audio-keyboard-response",69,285853,"0.0-39.0-2.0-0.0","5b53cc31c09af90001f113d4","","","","","",1512,"Blackthroated Green Warbler 3.mp3","h",TRUE,"5b53cc31c09af90001f113d4","15","Blackthroated Green Warbler 3.mp3","Hermit Thrush 5.mp3","Gray Catbird 5.mp3","h","2022-05-27 23:07:54","","","be81e7d9a9b77b828a6c90f3040b643f",0,"prolific","oaAlpha","",TRUE
149,1,"audio-keyboard-response",73,305758,"0.0-42.0-1.0-0.0","5b53cc31c09af90001f113d4","","","","","",2120,"Chipping Sparrow1.mp3","g",TRUE,"5b53cc31c09af90001f113d4","16","Chipping Sparrow1.mp3","Western Meadowlark 6.mp3","Hooded Warbler 6.mp3","g","2022-05-27 23:07:54","","","be81e7d9a9b77b828a6c90f3040b643f",0,"prolific","oaAlpha","",TRUE
149,1,"audio-keyboard-response",77,312841,"0.0-44.0-2.0-0.0","5b53cc31c09af90001f113d4","","","","","",1731,"Chipping Sparrow2.mp3","h",TRUE,"5b53cc31c09af90001f113d4","17","Chipping Sparrow2.mp3","Swainsons Thrush 6.mp3","Hermit Thrush 6.mp3","h","2022-05-27 23:07:54","","","be81e7d9a9b77b828a6c90f3040b643f",0,"prolific","oaAlpha","",TRUE
149,1,"audio-keyboard-response",81,323143,"0.0-46.0-2.0-0.0","5b53cc31c09af90001f113d4","","","","","",979,"Chipping Sparrow3.mp3","h",TRUE,"5b53cc31c09af90001f113d4","18","Chipping Sparrow3.mp3","Gray Catbird 18.mp3","Housefinch 18.mp3","h","2022-05-27 23:07:54","","","be81e7d9a9b77b828a6c90f3040b643f",0,"prolific","oaAlpha","",TRUE
149,1,"audio-keyboard-response",91,431622,"0.0-56.0-0.0","5b53cc31c09af90001f113d4","","","","","",2240,"Graycheeked Thrush3.mp3","f",TRUE,"5b53cc31c09af90001f113d4","19","American Robin4.mp3","Graycheeked Thrush3.mp3","Hermit Thrush 3.mp3","h","2022-05-27 23:07:54","","","be81e7d9a9b77b828a6c90f3040b643f",0,"prolific","oaAlpha","",FALSE
149,1,"audio-keyboard-response",93,435069,"0.0-58.0-0.0","5b53cc31c09af90001f113d4","","","","","",2432,"Blackpoll Warbler4.mp3","g",TRUE,"5b53cc31c09af90001f113d4","20","Blackpoll Warbler4.mp3","Sedge Wren4.mp3","Rubycrowned Kinglet4.mp3","f","2022-05-27 23:07:54","","","be81e7d9a9b77b828a6c90f3040b643f",0,"prolific","oaAlpha","",FALSE
149,1,"audio-keyboard-response",96,440346,"0.0-60.0-1.0-0.0","5b53cc31c09af90001f113d4","","","","","",1640,"American Robin5.mp3","h",TRUE,"5b53cc31c09af90001f113d4","21","American Robin5.mp3","Western Meadowlark3.mp3","Vesper Sparrow3.mp3","g","2022-05-27 23:07:54","","","be81e7d9a9b77b828a6c90f3040b643f",0,"prolific","oaAlpha","",FALSE
149,1,"audio-keyboard-response",98,442774,"0.0-62.0-0.0","5b53cc31c09af90001f113d4","","","","","",1389,"Chipping Sparrow4.mp3","f",TRUE,"5b53cc31c09af90001f113d4","22","Chipping Sparrow4.mp3","Veery6.mp3","Northern Cardinal6.mp3","f","2022-05-27 23:07:54","","","be81e7d9a9b77b828a6c90f3040b643f",0,"prolific","oaAlpha","",TRUE
149,1,"audio-keyboard-response",100,444883,"0.0-64.0-0.0","5b53cc31c09af90001f113d4","","","","","",1080,"Rubycrowned Kinglet3.mp3","g",TRUE,"5b53cc31c09af90001f113d4","23","American Robin7.mp3","Rubycrowned Kinglet3.mp3","Swainsons Thrush3.mp3","h","2022-05-27 23:07:54","","","be81e7d9a9b77b828a6c90f3040b643f",0,"prolific","oaAlpha","",FALSE
149,1,"audio-keyboard-response",102,446961,"0.0-66.0-0.0","5b53cc31c09af90001f113d4","","","","","",1040,"House Finch1.mp3","f",TRUE,"5b53cc31c09af90001f113d4","24","Acadian Flycatcher 7.mp3","House Finch1.mp3","Rubycrowned Kinglet1.mp3","g","2022-05-27 23:07:54","","","be81e7d9a9b77b828a6c90f3040b643f",0,"prolific","oaAlpha","",FALSE
149,1,"audio-keyboard-response",107,463588,"0.0-71.0-0.0","5b53cc31c09af90001f113d4","","","","","",1581,"Hooded Warbler1.mp3","f",TRUE,"5b53cc31c09af90001f113d4","25","Acadian Flycatcher 4.mp3","Hooded Warbler1.mp3","Northern Cardinal1.mp3","h","2022-05-27 23:07:54","","","be81e7d9a9b77b828a6c90f3040b643f",0,"prolific","oaAlpha","",FALSE
149,1,"audio-keyboard-response",109,465671,"0.0-73.0-0.0","5b53cc31c09af90001f113d4","","","","","",1032,"Lincolns Sparrow5.mp3","h",TRUE,"5b53cc31c09af90001f113d4","26","Blackthroated Green Warbler5.mp3","Lincolns Sparrow5.mp3","Rubycrowned Kinglet5.mp3","h","2022-05-27 23:07:54","","","be81e7d9a9b77b828a6c90f3040b643f",0,"prolific","oaAlpha","",TRUE
149,1,"audio-keyboard-response",111,467528,"0.0-75.0-0.0","5b53cc31c09af90001f113d4","","","","","",819,"Carolina Wren3.mp3","g",TRUE,"5b53cc31c09af90001f113d4","27","American Robin6.mp3","Carolina Wren3.mp3","Northern Mockingbird3.mp3","h","2022-05-27 23:07:54","","","be81e7d9a9b77b828a6c90f3040b643f",0,"prolific","oaAlpha","",FALSE
149,1,"audio-keyboard-response",113,470104,"0.0-77.0-0.0","5b53cc31c09af90001f113d4","","","","","",1552,"Acadian Flycatcher 8.mp3","f",TRUE,"5b53cc31c09af90001f113d4","28","Acadian Flycatcher 8.mp3","Swainsons Thrush1.mp3","Yellow Warbler Northern1.mp3","f","2022-05-27 23:07:54","","","be81e7d9a9b77b828a6c90f3040b643f",0,"prolific","oaAlpha","",TRUE
149,1,"audio-keyboard-response",115,471973,"0.0-79.0-0.0","5b53cc31c09af90001f113d4","","","","","",840,"Graycheeked Thrush5.mp3","h",TRUE,"5b53cc31c09af90001f113d4","29","Blackthroated Green Warbler4.mp3","Graycheeked Thrush5.mp3","Eurasian Blackbird5.mp3","h","2022-05-27 23:07:54","","","be81e7d9a9b77b828a6c90f3040b643f",0,"prolific","oaAlpha","",TRUE
149,1,"audio-keyboard-response",117,474703,"0.0-81.0-0.0","5b53cc31c09af90001f113d4","","","","","",1701,"Swainsons Thrush2.mp3","g",TRUE,"5b53cc31c09af90001f113d4","30","American Redstart 4.mp3","Swainsons Thrush2.mp3","House Finch2.mp3","g","2022-05-27 23:07:54","","","be81e7d9a9b77b828a6c90f3040b643f",0,"prolific","oaAlpha","",TRUE
149,1,"audio-keyboard-response",119,477079,"0.0-83.0-0.0","5b53cc31c09af90001f113d4","","","","","",1320,"Ovenbird5.mp3","h",TRUE,"5b53cc31c09af90001f113d4","31","Blackthroated Green Warbler6.mp3","Ovenbird5.mp3","Hooded Warbler5.mp3","h","2022-05-27 23:07:54","","","be81e7d9a9b77b828a6c90f3040b643f",0,"prolific","oaAlpha","",TRUE
149,1,"audio-keyboard-response",122,482189,"0.0-85.0-1.0-0.0","5b53cc31c09af90001f113d4","","","","","",1901,"Northern Cardinal4.mp3","h",TRUE,"5b53cc31c09af90001f113d4","32","Blackpoll Warbler6.mp3","Yellow Warbler Northern4.mp3","Northern Cardinal4.mp3","h","2022-05-27 23:07:54","","","be81e7d9a9b77b828a6c90f3040b643f",0,"prolific","oaAlpha","",TRUE
149,1,"audio-keyboard-response",126,489202,"0.0-87.0-2.0-0.0","5b53cc31c09af90001f113d4","","","","","",1509,"Acadian Flycatcher 6.mp3","h",TRUE,"5b53cc31c09af90001f113d4","33","Acadian Flycatcher 6.mp3","Connecticut Warbler1.mp3","Graycheeked Thrush1.mp3","h","2022-05-27 23:07:54","","","be81e7d9a9b77b828a6c90f3040b643f",0,"prolific","oaAlpha","",TRUE
149,1,"audio-keyboard-response",128,492000,"0.0-89.0-0.0","5b53cc31c09af90001f113d4","","","","","",1760,"Winter Wren6.mp3","f",TRUE,"5b53cc31c09af90001f113d4","34","Chipping Sparrow8.mp3","Winter Wren6.mp3","Lincolns Sparrow6.mp3","g","2022-05-27 23:07:54","","","be81e7d9a9b77b828a6c90f3040b643f",0,"prolific","oaAlpha","",FALSE
149,1,"audio-keyboard-response",132,499026,"0.0-91.0-2.0-0.0","5b53cc31c09af90001f113d4","","","","","",1109,"Blackpoll Warbler8.mp3","h",TRUE,"5b53cc31c09af90001f113d4","35","Blackpoll Warbler8.mp3","Yellowthroated Warbler4.mp3","Hooded Warbler4.mp3","h","2022-05-27 23:07:54","","","be81e7d9a9b77b828a6c90f3040b643f",0,"prolific","oaAlpha","",TRUE
149,1,"audio-keyboard-response",134,501663,"0.0-93.0-0.0","5b53cc31c09af90001f113d4","","","","","",1600,"Lincolns Sparrow2.mp3","f",TRUE,"5b53cc31c09af90001f113d4","36","American Redstart5.mp3","Lincolns Sparrow2.mp3","Hooded Warbler2.mp3","g","2022-05-27 23:07:54","","","be81e7d9a9b77b828a6c90f3040b643f",0,"prolific","oaAlpha","",FALSE
149,1,"audio-keyboard-response",136,503953,"0.0-95.0-0.0","5b53cc31c09af90001f113d4","","","","","",1251,"Tennessee Warbler4.mp3","f",TRUE,"5b53cc31c09af90001f113d4","37","Blackpoll Warbler5.mp3","Tennessee Warbler4.mp3","Vesper Sparrow4.mp3","h","2022-05-27 23:07:54","","","be81e7d9a9b77b828a6c90f3040b643f",0,"prolific","oaAlpha","",FALSE
149,1,"audio-keyboard-response",138,505806,"0.0-97.0-0.0","5b53cc31c09af90001f113d4","","","","","",840,"Ovenbird6.mp3","g",TRUE,"5b53cc31c09af90001f113d4","38","Chipping Sparrow5.mp3","Ovenbird6.mp3","Northern Mockingbird6.mp3","h","2022-05-27 23:07:54","","","be81e7d9a9b77b828a6c90f3040b643f",0,"prolific","oaAlpha","",FALSE
149,1,"audio-keyboard-response",140,508927,"0.0-99.0-0.0","5b53cc31c09af90001f113d4","","","","","",2088,"Veery 39.mp3","h",TRUE,"5b53cc31c09af90001f113d4","39","Acadian Flycatcher 5.mp3","Veery 39.mp3","Lincolns Sparrow1.mp3","h","2022-05-27 23:07:54","","","be81e7d9a9b77b828a6c90f3040b643f",0,"prolific","oaAlpha","",TRUE
149,1,"audio-keyboard-response",142,511169,"0.0-101.0-0.0","5b53cc31c09af90001f113d4","","","","","",1200,"Connecticut Warbler2.mp3","h",TRUE,"5b53cc31c09af90001f113d4","40","American Redstart7.mp3","Connecticut Warbler2.mp3","Tennessee Warbler2.mp3","h","2022-05-27 23:07:54","","","be81e7d9a9b77b828a6c90f3040b643f",0,"prolific","oaAlpha","",TRUE
149,1,"audio-keyboard-response",145,515274,"0.0-103.0-1.0-0.0","5b53cc31c09af90001f113d4","","","","","",1171,"Blackthroated Blue Warbler5.mp3","g",TRUE,"5b53cc31c09af90001f113d4","41","Blackthroated Green Warbler7.mp3","Connecticut Warbler5.mp3","Blackthroated Blue Warbler5.mp3","h","2022-05-27 23:07:54","","","be81e7d9a9b77b828a6c90f3040b643f",0,"prolific","oaAlpha","",FALSE
149,1,"audio-keyboard-response",147,518082,"0.0-105.0-0.0","5b53cc31c09af90001f113d4","","","","","",1749,"Blackpoll Warbler 42.mp3","h",TRUE,"5b53cc31c09af90001f113d4","42","Blackpoll Warbler 42.mp3","Yellowrumped Warbler Myrtle4.mp3","Cerulean Warbler 42.mp3","f","2022-05-27 23:07:54","","","be81e7d9a9b77b828a6c90f3040b643f",0,"prolific","oaAlpha","",FALSE
149,1,"audio-keyboard-response",149,520230,"0.0-107.0-0.0","5b53cc31c09af90001f113d4","","","","","",1101,"Tennessee Warbler.mp3","g",TRUE,"5b53cc31c09af90001f113d4","43","Chipping Sparrow6.mp3","Tennessee Warbler.mp3","Rubycrowned Kinglet6.mp3","g","2022-05-27 23:07:54","","","be81e7d9a9b77b828a6c90f3040b643f",0,"prolific","oaAlpha","",TRUE
149,1,"audio-keyboard-response",151,522240,"0.0-109.0-0.0","5b53cc31c09af90001f113d4","","","","","",968,"Yellow Warbler Northern5.mp3","g",TRUE,"5b53cc31c09af90001f113d4","44","Blackthroated Green Warbler8.mp3","Yellow Warbler Northern5.mp3","Yellowrumped Warbler Myrtle5.mp3","h","2022-05-27 23:07:54","","","be81e7d9a9b77b828a6c90f3040b643f",0,"prolific","oaAlpha","",FALSE
149,1,"audio-keyboard-response",153,524797,"0.0-111.0-0.0","5b53cc31c09af90001f113d4","","","","","",1528,"Yellowthroated Warbler2.mp3","f",TRUE,"5b53cc31c09af90001f113d4","45","American Redstart6.mp3","Yellowthroated Warbler2.mp3","Blackthroated Blue Warbler2.mp3","g","2022-05-27 23:07:54","","","be81e7d9a9b77b828a6c90f3040b643f",0,"prolific","oaAlpha","",FALSE
149,1,"audio-keyboard-response",155,526742,"0.0-113.0-0.0","5b53cc31c09af90001f113d4","","","","","",901,"Chipping Sparrow7.mp3","h",TRUE,"5b53cc31c09af90001f113d4","46","Chipping Sparrow7.mp3","Whitecrowned Sparrow6.mp3","Vesper Sparrow6.mp3","f","2022-05-27 23:07:54","","","be81e7d9a9b77b828a6c90f3040b643f",0,"prolific","oaAlpha","",FALSE
149,1,"audio-keyboard-response",157,529450,"0.0-115.0-0.0","5b53cc31c09af90001f113d4","","","","","",1669,"Northern Cardinal3.mp3","f",TRUE,"5b53cc31c09af90001f113d4","47","American Robin8.mp3","Northern Cardinal3.mp3","Ovenbird3.mp3","h","2022-05-27 23:07:54","","","be81e7d9a9b77b828a6c90f3040b643f",0,"prolific","oaAlpha","",FALSE
149,1,"audio-keyboard-response",159,531529,"0.0-117.0-0.0","5b53cc31c09af90001f113d4","","","","","",1040,"Yellowrumped Warbler Myrtle2.mp3","h",TRUE,"5b53cc31c09af90001f113d4","48","American Redstart 48.mp3","Yellowrumped Warbler Myrtle2.mp3","Northern Mockingbird 48.mp3","h","2022-05-27 23:07:54","","","be81e7d9a9b77b828a6c90f3040b643f",0,"prolific","oaAlpha","",TRUE
150,1,"audio-keyboard-response",12,82432,"0.0-7.0-2.0-0.0","5e1e0cc5928d3e17322489b6","","","","","",2659,"Acadian Flycatcher 1.mp3","h",TRUE,"5e1e0cc5928d3e17322489b6","1","Acadian Flycatcher 1.mp3","Blackthroated Blue Warbler 1.mp3","Brown Thrasher 1.mp3","h","2022-05-27 23:08:13","","","be81e7d9a9b77b828a6c90f3040b643f",0,"prolific","oaAlpha","",TRUE
150,1,"audio-keyboard-response",15,96661,"0.0-9.0-1.0-0.0","5e1e0cc5928d3e17322489b6","","","","","",7459,"Acadian Flycatcher 2.mp3","g",TRUE,"5e1e0cc5928d3e17322489b6","2","Acadian Flycatcher 2.mp3","Carolina Wren 1.mp3","Eastern Towhee 1.mp3","g","2022-05-27 23:08:13","","","be81e7d9a9b77b828a6c90f3040b643f",0,"prolific","oaAlpha","",TRUE
150,1,"audio-keyboard-response",18,107178,"0.0-11.0-1.0-0.0","5e1e0cc5928d3e17322489b6","","","","","",4880,"Acadian Flycatcher 3.mp3","g",TRUE,"5e1e0cc5928d3e17322489b6","3","Acadian Flycatcher 3.mp3","Eurasian Blackbird 1.mp3","Hermit Thrush 1.mp3","g","2022-05-27 23:08:13","","","be81e7d9a9b77b828a6c90f3040b643f",0,"prolific","oaAlpha","",TRUE
150,1,"audio-keyboard-response",23,134098,"0.0-14.0-2.0-0.0","5e1e0cc5928d3e17322489b6","","","","","",2229,"American Redstart1.mp3","h",TRUE,"5e1e0cc5928d3e17322489b6","4","American Redstart1.mp3","Wood Thrush 2.mp3","Winter Wren 2.mp3","h","2022-05-27 23:08:13","","","be81e7d9a9b77b828a6c90f3040b643f",0,"prolific","oaAlpha","",TRUE
150,1,"audio-keyboard-response",27,146019,"0.0-16.0-2.0-0.0","5e1e0cc5928d3e17322489b6","","","","","",3059,"American Redstart2.mp3","h",TRUE,"5e1e0cc5928d3e17322489b6","5","American Redstart2.mp3","Whitecrowned Sparrow 2.mp3","Western Meadowlark2.mp3","h","2022-05-27 23:08:13","","","be81e7d9a9b77b828a6c90f3040b643f",0,"prolific","oaAlpha","",TRUE
150,1,"audio-keyboard-response",32,160154,"0.0-18.1-0.1","5e1e0cc5928d3e17322489b6","","","","","",1581,"Vesper Sparrow 2.mp3","h",TRUE,"5e1e0cc5928d3e17322489b6","6","American Redstart3.mp3","Vesper Sparrow 2.mp3","Veery2.mp3","h","2022-05-27 23:08:13","","","be81e7d9a9b77b828a6c90f3040b643f",0,"prolific","oaAlpha","",TRUE
150,1,"audio-keyboard-response",36,183821,"0.0-21.0-1.0-0.0","5e1e0cc5928d3e17322489b6","","","","","",2509,"American Robin1.mp3","g",TRUE,"5e1e0cc5928d3e17322489b6","7","American Robin1.mp3","Hooded Warbler3.mp3","Sedge Wren7.mp3","g","2022-05-27 23:08:13","","","be81e7d9a9b77b828a6c90f3040b643f",0,"prolific","oaAlpha","",TRUE
150,1,"audio-keyboard-response",40,195682,"0.0-23.0-2.0-0.0","5e1e0cc5928d3e17322489b6","","","","","",3211,"Eurasian Blackbird3.mp3","f",TRUE,"5e1e0cc5928d3e17322489b6","8","American Robin2.mp3","Brown Thrasher 3.mp3","Eurasian Blackbird3.mp3","f","2022-05-27 23:08:13","","","be81e7d9a9b77b828a6c90f3040b643f",0,"prolific","oaAlpha","",TRUE
150,1,"audio-keyboard-response",44,204834,"0.0-25.0-2.0-0.0","5e1e0cc5928d3e17322489b6","","","","","",880,"Gray Catbird 3.mp3","f",TRUE,"5e1e0cc5928d3e17322489b6","9","American Robin3.mp3","Connecticut Warbler 3.mp3","Gray Catbird 3.mp3","f","2022-05-27 23:08:13","","","be81e7d9a9b77b828a6c90f3040b643f",0,"prolific","oaAlpha","",TRUE
150,1,"audio-keyboard-response",47,222016,"0.0-28.0-0.0","5e1e0cc5928d3e17322489b6","","","","","",2648,"Blackpoll Warbler1.mp3","f",TRUE,"5e1e0cc5928d3e17322489b6","10","Blackpoll Warbler1.mp3","Wood Thrush 4.mp3","Whitecrowned Sparrow4.mp3","f","2022-05-27 23:08:13","","","be81e7d9a9b77b828a6c90f3040b643f",0,"prolific","oaAlpha","",TRUE
150,1,"audio-keyboard-response",51,238551,"0.0-30.0-2.0-0.0","5e1e0cc5928d3e17322489b6","","","","","",2491,"Blackpoll Warbler 11.mp3","h",TRUE,"5e1e0cc5928d3e17322489b6","11","Blackpoll Warbler 11.mp3","Cerulean Warbler 11.mp3","Eurasian Blackbird 11.mp3","h","2022-05-27 23:08:13","","","be81e7d9a9b77b828a6c90f3040b643f",0,"prolific","oaAlpha","",TRUE
150,1,"audio-keyboard-response",53,242567,"0.0-32.0-0.0","5e1e0cc5928d3e17322489b6","","","","","",3011,"Blackpoll Warbler3.mp3","f",TRUE,"5e1e0cc5928d3e17322489b6","12","Blackpoll Warbler3.mp3","Veery4.mp3","Swainsons Thrush 4.mp3","f","2022-05-27 23:08:13","","","be81e7d9a9b77b828a6c90f3040b643f",0,"prolific","oaAlpha","",TRUE
150,1,"audio-keyboard-response",56,258663,"0.0-35.0-0.0","5e1e0cc5928d3e17322489b6","","","","","",1611,"Blackthroated Green Warbler1.mp3","f",TRUE,"5e1e0cc5928d3e17322489b6","13","Blackthroated Green Warbler1.mp3","Northern Cardinal 5.mp3","Sedge Wren 5.mp3","f","2022-05-27 23:08:13","","","be81e7d9a9b77b828a6c90f3040b643f",0,"prolific","oaAlpha","",TRUE
150,1,"audio-keyboard-response",59,263936,"0.0-37.0-1.0-0.0","5e1e0cc5928d3e17322489b6","","","","","",2040,"Blackthroated Green Warbler 2.mp3","g",TRUE,"5e1e0cc5928d3e17322489b6","14","Blackthroated Green Warbler 2.mp3","Northern Mockingbird 5.mp3","House Finch 5.mp3","g","2022-05-27 23:08:13","","","be81e7d9a9b77b828a6c90f3040b643f",0,"prolific","oaAlpha","",TRUE
150,1,"audio-keyboard-response",63,270506,"0.0-39.0-2.0-0.0","5e1e0cc5928d3e17322489b6","","","","","",1069,"Blackthroated Green Warbler 3.mp3","h",TRUE,"5e1e0cc5928d3e17322489b6","15","Blackthroated Green Warbler 3.mp3","Hermit Thrush 5.mp3","Gray Catbird 5.mp3","h","2022-05-27 23:08:13","","","be81e7d9a9b77b828a6c90f3040b643f",0,"prolific","oaAlpha","",TRUE
150,1,"audio-keyboard-response",67,290467,"0.0-42.0-1.0-0.0","5e1e0cc5928d3e17322489b6","","","","","",2211,"Chipping Sparrow1.mp3","g",TRUE,"5e1e0cc5928d3e17322489b6","16","Chipping Sparrow1.mp3","Western Meadowlark 6.mp3","Hooded Warbler 6.mp3","g","2022-05-27 23:08:13","","","be81e7d9a9b77b828a6c90f3040b643f",0,"prolific","oaAlpha","",TRUE
150,1,"audio-keyboard-response",72,299397,"0.0-44.1-0.1","5e1e0cc5928d3e17322489b6","","","","","",91,"Swainsons Thrush 6.mp3","h",TRUE,"5e1e0cc5928d3e17322489b6","17","Chipping Sparrow2.mp3","Swainsons Thrush 6.mp3","Hermit Thrush 6.mp3","h","2022-05-27 23:08:13","","","be81e7d9a9b77b828a6c90f3040b643f",0,"prolific","oaAlpha","",TRUE
150,1,"audio-keyboard-response",76,310511,"0.0-46.0-2.0-0.0","5e1e0cc5928d3e17322489b6","","","","","",1899,"Chipping Sparrow3.mp3","h",TRUE,"5e1e0cc5928d3e17322489b6","18","Chipping Sparrow3.mp3","Gray Catbird 18.mp3","Housefinch 18.mp3","h","2022-05-27 23:08:13","","","be81e7d9a9b77b828a6c90f3040b643f",0,"prolific","oaAlpha","",TRUE
150,1,"audio-keyboard-response",88,428380,"0.0-56.0-2.0-0.0","5e1e0cc5928d3e17322489b6","","","","","",1309,"American Robin4.mp3","h",TRUE,"5e1e0cc5928d3e17322489b6","19","American Robin4.mp3","Graycheeked Thrush3.mp3","Hermit Thrush 3.mp3","h","2022-05-27 23:08:13","","","be81e7d9a9b77b828a6c90f3040b643f",0,"prolific","oaAlpha","",TRUE
150,1,"audio-keyboard-response",93,436142,"0.0-58.1-0.1","5e1e0cc5928d3e17322489b6","","","","","",69,"Blackpoll Warbler4.mp3","f",TRUE,"5e1e0cc5928d3e17322489b6","20","Blackpoll Warbler4.mp3","Sedge Wren4.mp3","Rubycrowned Kinglet4.mp3","f","2022-05-27 23:08:13","","","be81e7d9a9b77b828a6c90f3040b643f",0,"prolific","oaAlpha","",TRUE
150,1,"audio-keyboard-response",97,443083,"0.0-60.0-2.0-0.0","5e1e0cc5928d3e17322489b6","","","","","",1101,"Vesper Sparrow3.mp3","g",TRUE,"5e1e0cc5928d3e17322489b6","21","American Robin5.mp3","Western Meadowlark3.mp3","Vesper Sparrow3.mp3","g","2022-05-27 23:08:13","","","be81e7d9a9b77b828a6c90f3040b643f",0,"prolific","oaAlpha","",TRUE
150,1,"audio-keyboard-response",101,450994,"0.0-62.0-2.0-0.0","5e1e0cc5928d3e17322489b6","","","","","",821,"Northern Cardinal6.mp3","f",TRUE,"5e1e0cc5928d3e17322489b6","22","Chipping Sparrow4.mp3","Veery6.mp3","Northern Cardinal6.mp3","f","2022-05-27 23:08:13","","","be81e7d9a9b77b828a6c90f3040b643f",0,"prolific","oaAlpha","",TRUE
150,1,"audio-keyboard-response",105,461542,"0.0-64.0-2.0-0.0","5e1e0cc5928d3e17322489b6","","","","","",1539,"American Robin7.mp3","h",TRUE,"5e1e0cc5928d3e17322489b6","23","American Robin7.mp3","Rubycrowned Kinglet3.mp3","Swainsons Thrush3.mp3","h","2022-05-27 23:08:13","","","be81e7d9a9b77b828a6c90f3040b643f",0,"prolific","oaAlpha","",TRUE
150,1,"audio-keyboard-response",108,471776,"0.0-66.0-1.0-0.0","5e1e0cc5928d3e17322489b6","","","","","",5768,"Acadian Flycatcher 7.mp3","g",TRUE,"5e1e0cc5928d3e17322489b6","24","Acadian Flycatcher 7.mp3","House Finch1.mp3","Rubycrowned Kinglet1.mp3","g","2022-05-27 23:08:13","","","be81e7d9a9b77b828a6c90f3040b643f",0,"prolific","oaAlpha","",TRUE
150,1,"audio-keyboard-response",115,496508,"0.0-71.0-2.0-0.0","5e1e0cc5928d3e17322489b6","","","","","",3829,"Acadian Flycatcher 4.mp3","h",TRUE,"5e1e0cc5928d3e17322489b6","25","Acadian Flycatcher 4.mp3","Hooded Warbler1.mp3","Northern Cardinal1.mp3","h","2022-05-27 23:08:13","","","be81e7d9a9b77b828a6c90f3040b643f",0,"prolific","oaAlpha","",TRUE
150,1,"audio-keyboard-response",120,509647,"0.0-73.1-0.1","5e1e0cc5928d3e17322489b6","","","","","",371,"Lincolns Sparrow5.mp3","h",TRUE,"5e1e0cc5928d3e17322489b6","26","Blackthroated Green Warbler5.mp3","Lincolns Sparrow5.mp3","Rubycrowned Kinglet5.mp3","h","2022-05-27 23:08:13","","","be81e7d9a9b77b828a6c90f3040b643f",0,"prolific","oaAlpha","",TRUE
150,1,"audio-keyboard-response",124,517306,"0.0-75.0-2.0-0.0","5e1e0cc5928d3e17322489b6","","","","","",1640,"American Robin6.mp3","h",TRUE,"5e1e0cc5928d3e17322489b6","27","American Robin6.mp3","Carolina Wren3.mp3","Northern Mockingbird3.mp3","h","2022-05-27 23:08:13","","","be81e7d9a9b77b828a6c90f3040b643f",0,"prolific","oaAlpha","",TRUE
150,1,"audio-keyboard-response",126,523530,"0.0-77.0-0.0","5e1e0cc5928d3e17322489b6","","","","","",5211,"Acadian Flycatcher 8.mp3","f",TRUE,"5e1e0cc5928d3e17322489b6","28","Acadian Flycatcher 8.mp3","Swainsons Thrush1.mp3","Yellow Warbler Northern1.mp3","f","2022-05-27 23:08:13","","","be81e7d9a9b77b828a6c90f3040b643f",0,"prolific","oaAlpha","",TRUE
150,1,"audio-keyboard-response",130,531055,"0.0-79.0-2.0-0.0","5e1e0cc5928d3e17322489b6","","","","","",1899,"Blackthroated Green Warbler4.mp3","h",TRUE,"5e1e0cc5928d3e17322489b6","29","Blackthroated Green Warbler4.mp3","Graycheeked Thrush5.mp3","Eurasian Blackbird5.mp3","h","2022-05-27 23:08:13","","","be81e7d9a9b77b828a6c90f3040b643f",0,"prolific","oaAlpha","",TRUE
150,1,"audio-keyboard-response",134,538529,"0.0-81.0-2.0-0.0","5e1e0cc5928d3e17322489b6","","","","","",2000,"House Finch2.mp3","g",TRUE,"5e1e0cc5928d3e17322489b6","30","American Redstart 4.mp3","Swainsons Thrush2.mp3","House Finch2.mp3","g","2022-05-27 23:08:13","","","be81e7d9a9b77b828a6c90f3040b643f",0,"prolific","oaAlpha","",TRUE
150,1,"audio-keyboard-response",139,548085,"0.0-83.1-0.1","5e1e0cc5928d3e17322489b6","","","","","",360,"Ovenbird5.mp3","f",TRUE,"5e1e0cc5928d3e17322489b6","31","Blackthroated Green Warbler6.mp3","Ovenbird5.mp3","Hooded Warbler5.mp3","h","2022-05-27 23:08:13","","","be81e7d9a9b77b828a6c90f3040b643f",0,"prolific","oaAlpha","",FALSE
150,1,"audio-keyboard-response",143,556089,"0.0-85.0-2.0-0.0","5e1e0cc5928d3e17322489b6","","","","","",1472,"Blackpoll Warbler6.mp3","f",TRUE,"5e1e0cc5928d3e17322489b6","32","Blackpoll Warbler6.mp3","Yellow Warbler Northern4.mp3","Northern Cardinal4.mp3","h","2022-05-27 23:08:13","","","be81e7d9a9b77b828a6c90f3040b643f",0,"prolific","oaAlpha","",FALSE
150,1,"audio-keyboard-response",147,563970,"0.0-87.0-2.0-0.0","5e1e0cc5928d3e17322489b6","","","","","",2421,"Acadian Flycatcher 6.mp3","h",TRUE,"5e1e0cc5928d3e17322489b6","33","Acadian Flycatcher 6.mp3","Connecticut Warbler1.mp3","Graycheeked Thrush1.mp3","h","2022-05-27 23:08:13","","","be81e7d9a9b77b828a6c90f3040b643f",0,"prolific","oaAlpha","",TRUE
150,1,"audio-keyboard-response",151,573970,"0.0-89.0-2.0-0.0","5e1e0cc5928d3e17322489b6","","","","","",1960,"Lincolns Sparrow6.mp3","g",TRUE,"5e1e0cc5928d3e17322489b6","34","Chipping Sparrow8.mp3","Winter Wren6.mp3","Lincolns Sparrow6.mp3","g","2022-05-27 23:08:13","","","be81e7d9a9b77b828a6c90f3040b643f",0,"prolific","oaAlpha","",TRUE
150,1,"audio-keyboard-response",156,582844,"0.0-91.1-0.1","5e1e0cc5928d3e17322489b6","","","","","",331,"Yellowthroated Warbler4.mp3","g",TRUE,"5e1e0cc5928d3e17322489b6","35","Blackpoll Warbler8.mp3","Yellowthroated Warbler4.mp3","Hooded Warbler4.mp3","h","2022-05-27 23:08:13","","","be81e7d9a9b77b828a6c90f3040b643f",0,"prolific","oaAlpha","",FALSE
150,1,"audio-keyboard-response",161,593379,"0.0-93.1-0.1","5e1e0cc5928d3e17322489b6","","","","","",1709,"Lincolns Sparrow2.mp3","g",TRUE,"5e1e0cc5928d3e17322489b6","36","American Redstart5.mp3","Lincolns Sparrow2.mp3","Hooded Warbler2.mp3","g","2022-05-27 23:08:13","","","be81e7d9a9b77b828a6c90f3040b643f",0,"prolific","oaAlpha","",TRUE
150,1,"audio-keyboard-response",165,603603,"0.0-95.0-2.0-0.0","5e1e0cc5928d3e17322489b6","","","","","",1672,"Blackpoll Warbler5.mp3","h",TRUE,"5e1e0cc5928d3e17322489b6","37","Blackpoll Warbler5.mp3","Tennessee Warbler4.mp3","Vesper Sparrow4.mp3","h","2022-05-27 23:08:13","","","be81e7d9a9b77b828a6c90f3040b643f",0,"prolific","oaAlpha","",TRUE
150,1,"audio-keyboard-response",172,622706,"0.0-97.1-2.1-0.1","5e1e0cc5928d3e17322489b6","","","","","",2011,"Chipping Sparrow5.mp3","h",TRUE,"5e1e0cc5928d3e17322489b6","38","Chipping Sparrow5.mp3","Ovenbird6.mp3","Northern Mockingbird6.mp3","h","2022-05-27 23:08:13","","","be81e7d9a9b77b828a6c90f3040b643f",0,"prolific","oaAlpha","",TRUE
150,1,"audio-keyboard-response",176,633972,"0.0-99.0-2.0-0.0","5e1e0cc5928d3e17322489b6","","","","","",1712,"Acadian Flycatcher 5.mp3","h",TRUE,"5e1e0cc5928d3e17322489b6","39","Acadian Flycatcher 5.mp3","Veery 39.mp3","Lincolns Sparrow1.mp3","h","2022-05-27 23:08:13","","","be81e7d9a9b77b828a6c90f3040b643f",0,"prolific","oaAlpha","",TRUE
150,1,"audio-keyboard-response",181,642061,"0.0-101.1-0.1","5e1e0cc5928d3e17322489b6","","","","","",288,"Connecticut Warbler2.mp3","g",TRUE,"5e1e0cc5928d3e17322489b6","40","American Redstart7.mp3","Connecticut Warbler2.mp3","Tennessee Warbler2.mp3","h","2022-05-27 23:08:13","","","be81e7d9a9b77b828a6c90f3040b643f",0,"prolific","oaAlpha","",FALSE
150,1,"audio-keyboard-response",185,648440,"0.0-103.0-2.0-0.0","5e1e0cc5928d3e17322489b6","","","","","",1600,"Blackthroated Green Warbler7.mp3","h",TRUE,"5e1e0cc5928d3e17322489b6","41","Blackthroated Green Warbler7.mp3","Connecticut Warbler5.mp3","Blackthroated Blue Warbler5.mp3","h","2022-05-27 23:08:13","","","be81e7d9a9b77b828a6c90f3040b643f",0,"prolific","oaAlpha","",TRUE
150,1,"audio-keyboard-response",189,658108,"0.0-105.0-2.0-0.0","5e1e0cc5928d3e17322489b6","","","","","",1739,"Cerulean Warbler 42.mp3","h",TRUE,"5e1e0cc5928d3e17322489b6","42","Blackpoll Warbler 42.mp3","Yellowrumped Warbler Myrtle4.mp3","Cerulean Warbler 42.mp3","f","2022-05-27 23:08:13","","","be81e7d9a9b77b828a6c90f3040b643f",0,"prolific","oaAlpha","",FALSE
150,1,"audio-keyboard-response",193,669754,"0.0-107.0-2.0-0.0","5e1e0cc5928d3e17322489b6","","","","","",3389,"Rubycrowned Kinglet6.mp3","g",TRUE,"5e1e0cc5928d3e17322489b6","43","Chipping Sparrow6.mp3","Tennessee Warbler.mp3","Rubycrowned Kinglet6.mp3","g","2022-05-27 23:08:13","","","be81e7d9a9b77b828a6c90f3040b643f",0,"prolific","oaAlpha","",TRUE
150,1,"audio-keyboard-response",202,686640,"0.0-109.2-1.2-0.2","5e1e0cc5928d3e17322489b6","","","","","",909,"Yellowrumped Warbler Myrtle5.mp3","g",TRUE,"5e1e0cc5928d3e17322489b6","44","Blackthroated Green Warbler8.mp3","Yellow Warbler Northern5.mp3","Yellowrumped Warbler Myrtle5.mp3","h","2022-05-27 23:08:13","","","be81e7d9a9b77b828a6c90f3040b643f",0,"prolific","oaAlpha","",FALSE
150,1,"audio-keyboard-response",207,697303,"0.0-111.1-0.1","5e1e0cc5928d3e17322489b6","","","","","",1880,"Yellowthroated Warbler2.mp3","f",TRUE,"5e1e0cc5928d3e17322489b6","45","American Redstart6.mp3","Yellowthroated Warbler2.mp3","Blackthroated Blue Warbler2.mp3","g","2022-05-27 23:08:13","","","be81e7d9a9b77b828a6c90f3040b643f",0,"prolific","oaAlpha","",FALSE
150,1,"audio-keyboard-response",209,701373,"0.0-113.0-0.0","5e1e0cc5928d3e17322489b6","","","","","",3051,"Chipping Sparrow7.mp3","f",TRUE,"5e1e0cc5928d3e17322489b6","46","Chipping Sparrow7.mp3","Whitecrowned Sparrow6.mp3","Vesper Sparrow6.mp3","f","2022-05-27 23:08:13","","","be81e7d9a9b77b828a6c90f3040b643f",0,"prolific","oaAlpha","",TRUE
150,1,"audio-keyboard-response",212,707957,"0.0-115.0-1.0-0.0","5e1e0cc5928d3e17322489b6","","","","","",1880,"Ovenbird3.mp3","g",TRUE,"5e1e0cc5928d3e17322489b6","47","American Robin8.mp3","Northern Cardinal3.mp3","Ovenbird3.mp3","h","2022-05-27 23:08:13","","","be81e7d9a9b77b828a6c90f3040b643f",0,"prolific","oaAlpha","",FALSE
150,1,"audio-keyboard-response",216,714376,"0.0-117.0-2.0-0.0","5e1e0cc5928d3e17322489b6","","","","","",1408,"American Redstart 48.mp3","h",TRUE,"5e1e0cc5928d3e17322489b6","48","American Redstart 48.mp3","Yellowrumped Warbler Myrtle2.mp3","Northern Mockingbird 48.mp3","h","2022-05-27 23:08:13","","","be81e7d9a9b77b828a6c90f3040b643f",0,"prolific","oaAlpha","",TRUE
151,1,"audio-keyboard-response",8,52934,"0.0-7.0-0.0","5e2f1e401a4075000d1bee59","","","","","",1611,"Blackthroated Blue Warbler 1.mp3","f",TRUE,"5e2f1e401a4075000d1bee59","1","Acadian Flycatcher 1.mp3","Blackthroated Blue Warbler 1.mp3","Brown Thrasher 1.mp3","h","2022-05-27 23:14:53","","","be81e7d9a9b77b828a6c90f3040b643f",0,"prolific","oaAlpha","",FALSE
151,1,"audio-keyboard-response",11,62591,"0.0-9.0-1.0-0.0","5e2f1e401a4075000d1bee59","","","","","",2880,"Acadian Flycatcher 2.mp3","f",TRUE,"5e2f1e401a4075000d1bee59","2","Acadian Flycatcher 2.mp3","Carolina Wren 1.mp3","Eastern Towhee 1.mp3","g","2022-05-27 23:14:53","","","be81e7d9a9b77b828a6c90f3040b643f",0,"prolific","oaAlpha","",FALSE
151,1,"audio-keyboard-response",14,70578,"0.0-11.0-1.0-0.0","5e2f1e401a4075000d1bee59","","","","","",2320,"Acadian Flycatcher 3.mp3","h",TRUE,"5e2f1e401a4075000d1bee59","3","Acadian Flycatcher 3.mp3","Eurasian Blackbird 1.mp3","Hermit Thrush 1.mp3","g","2022-05-27 23:14:53","","","be81e7d9a9b77b828a6c90f3040b643f",0,"prolific","oaAlpha","",FALSE
151,1,"audio-keyboard-response",17,91032,"0.0-14.0-0.0","5e2f1e401a4075000d1bee59","","","","","",2021,"Wood Thrush 2.mp3","h",TRUE,"5e2f1e401a4075000d1bee59","4","American Redstart1.mp3","Wood Thrush 2.mp3","Winter Wren 2.mp3","h","2022-05-27 23:14:53","","","be81e7d9a9b77b828a6c90f3040b643f",0,"prolific","oaAlpha","",TRUE
151,1,"audio-keyboard-response",28,128239,"0.0-16.3-0.3","5e2f1e401a4075000d1bee59","","","","","",752,"Whitecrowned Sparrow 2.mp3","g",TRUE,"5e2f1e401a4075000d1bee59","5","American Redstart2.mp3","Whitecrowned Sparrow 2.mp3","Western Meadowlark2.mp3","h","2022-05-27 23:14:53","","","be81e7d9a9b77b828a6c90f3040b643f",0,"prolific","oaAlpha","",FALSE
151,1,"audio-keyboard-response",33,141887,"0.0-18.1-0.1","5e2f1e401a4075000d1bee59","","","","","",1048,"Vesper Sparrow 2.mp3","f",TRUE,"5e2f1e401a4075000d1bee59","6","American Redstart3.mp3","Vesper Sparrow 2.mp3","Veery2.mp3","h","2022-05-27 23:14:53","","","be81e7d9a9b77b828a6c90f3040b643f",0,"prolific","oaAlpha","",FALSE
151,1,"audio-keyboard-response",37,165749,"0.0-21.0-1.0-0.0","5e2f1e401a4075000d1bee59","","","","","",2680,"American Robin1.mp3","h",TRUE,"5e2f1e401a4075000d1bee59","7","American Robin1.mp3","Hooded Warbler3.mp3","Sedge Wren7.mp3","g","2022-05-27 23:14:53","","","be81e7d9a9b77b828a6c90f3040b643f",0,"prolific","oaAlpha","",FALSE
151,1,"audio-keyboard-response",41,175969,"0.0-23.0-2.0-0.0","5e2f1e401a4075000d1bee59","","","","","",1528,"Eurasian Blackbird3.mp3","g",TRUE,"5e2f1e401a4075000d1bee59","8","American Robin2.mp3","Brown Thrasher 3.mp3","Eurasian Blackbird3.mp3","f","2022-05-27 23:14:53","","","be81e7d9a9b77b828a6c90f3040b643f",0,"prolific","oaAlpha","",FALSE
151,1,"audio-keyboard-response",45,185570,"0.0-25.0-2.0-0.0","5e2f1e401a4075000d1bee59","","","","","",1288,"Gray Catbird 3.mp3","f",TRUE,"5e2f1e401a4075000d1bee59","9","American Robin3.mp3","Connecticut Warbler 3.mp3","Gray Catbird 3.mp3","f","2022-05-27 23:14:53","","","be81e7d9a9b77b828a6c90f3040b643f",0,"prolific","oaAlpha","",TRUE
151,1,"audio-keyboard-response",50,208399,"0.0-28.0-2.0-0.0","5e2f1e401a4075000d1bee59","","","","","",2221,"Whitecrowned Sparrow4.mp3","f",TRUE,"5e2f1e401a4075000d1bee59","10","Blackpoll Warbler1.mp3","Wood Thrush 4.mp3","Whitecrowned Sparrow4.mp3","f","2022-05-27 23:14:53","","","be81e7d9a9b77b828a6c90f3040b643f",0,"prolific","oaAlpha","",TRUE
151,1,"audio-keyboard-response",54,226040,"0.0-30.0-2.0-0.0","5e2f1e401a4075000d1bee59","","","","","",3571,"Blackpoll Warbler 11.mp3","g",TRUE,"5e2f1e401a4075000d1bee59","11","Blackpoll Warbler 11.mp3","Cerulean Warbler 11.mp3","Eurasian Blackbird 11.mp3","h","2022-05-27 23:14:53","","","be81e7d9a9b77b828a6c90f3040b643f",0,"prolific","oaAlpha","",FALSE
151,1,"audio-keyboard-response",57,231921,"0.0-32.0-1.0-0.0","5e2f1e401a4075000d1bee59","","","","","",1341,"Veery4.mp3","f",TRUE,"5e2f1e401a4075000d1bee59","12","Blackpoll Warbler3.mp3","Veery4.mp3","Swainsons Thrush 4.mp3","f","2022-05-27 23:14:53","","","be81e7d9a9b77b828a6c90f3040b643f",0,"prolific","oaAlpha","",TRUE
151,1,"audio-keyboard-response",62,255072,"0.0-35.0-2.0-0.0","5e2f1e401a4075000d1bee59","","","","","",2181,"Sedge Wren 5.mp3","h",TRUE,"5e2f1e401a4075000d1bee59","13","Blackthroated Green Warbler1.mp3","Northern Cardinal 5.mp3","Sedge Wren 5.mp3","f","2022-05-27 23:14:53","","","be81e7d9a9b77b828a6c90f3040b643f",0,"prolific","oaAlpha","",FALSE
151,1,"audio-keyboard-response",68,265728,"0.0-37.1-1.1-0.1","5e2f1e401a4075000d1bee59","","","","","",469,"Blackthroated Green Warbler 2.mp3","h",TRUE,"5e2f1e401a4075000d1bee59","14","Blackthroated Green Warbler 2.mp3","Northern Mockingbird 5.mp3","House Finch 5.mp3","g","2022-05-27 23:14:53","","","be81e7d9a9b77b828a6c90f3040b643f",0,"prolific","oaAlpha","",FALSE
151,1,"audio-keyboard-response",73,274593,"0.0-39.1-0.1","5e2f1e401a4075000d1bee59","","","","","",981,"Hermit Thrush 5.mp3","h",TRUE,"5e2f1e401a4075000d1bee59","15","Blackthroated Green Warbler 3.mp3","Hermit Thrush 5.mp3","Gray Catbird 5.mp3","h","2022-05-27 23:14:53","","","be81e7d9a9b77b828a6c90f3040b643f",0,"prolific","oaAlpha","",TRUE
151,1,"audio-keyboard-response",79,298735,"0.0-42.1-0.1","5e2f1e401a4075000d1bee59","","","","","",880,"Western Meadowlark 6.mp3","g",TRUE,"5e2f1e401a4075000d1bee59","16","Chipping Sparrow1.mp3","Western Meadowlark 6.mp3","Hooded Warbler 6.mp3","g","2022-05-27 23:14:53","","","be81e7d9a9b77b828a6c90f3040b643f",0,"prolific","oaAlpha","",TRUE
151,1,"audio-keyboard-response",83,306970,"0.0-44.0-2.0-0.0","5e2f1e401a4075000d1bee59","","","","","",2899,"Chipping Sparrow2.mp3","h",TRUE,"5e2f1e401a4075000d1bee59","17","Chipping Sparrow2.mp3","Swainsons Thrush 6.mp3","Hermit Thrush 6.mp3","h","2022-05-27 23:14:53","","","be81e7d9a9b77b828a6c90f3040b643f",0,"prolific","oaAlpha","",TRUE
151,1,"audio-keyboard-response",87,317753,"0.0-46.0-2.0-0.0","5e2f1e401a4075000d1bee59","","","","","",1541,"Chipping Sparrow3.mp3","f",TRUE,"5e2f1e401a4075000d1bee59","18","Chipping Sparrow3.mp3","Gray Catbird 18.mp3","Housefinch 18.mp3","h","2022-05-27 23:14:53","","","be81e7d9a9b77b828a6c90f3040b643f",0,"prolific","oaAlpha","",FALSE
151,1,"audio-keyboard-response",101,438011,"0.0-56.1-1.1-0.1","5e2f1e401a4075000d1bee59","","","","","",1568,"Hermit Thrush 3.mp3","g",TRUE,"5e2f1e401a4075000d1bee59","19","American Robin4.mp3","Graycheeked Thrush3.mp3","Hermit Thrush 3.mp3","h","2022-05-27 23:14:53","","","be81e7d9a9b77b828a6c90f3040b643f",0,"prolific","oaAlpha","",FALSE
151,1,"audio-keyboard-response",106,447566,"0.0-58.1-0.1","5e2f1e401a4075000d1bee59","","","","","",1808,"Blackpoll Warbler4.mp3","f",TRUE,"5e2f1e401a4075000d1bee59","20","Blackpoll Warbler4.mp3","Sedge Wren4.mp3","Rubycrowned Kinglet4.mp3","f","2022-05-27 23:14:53","","","be81e7d9a9b77b828a6c90f3040b643f",0,"prolific","oaAlpha","",TRUE
151,1,"audio-keyboard-response",110,455407,"0.0-60.0-2.0-0.0","5e2f1e401a4075000d1bee59","","","","","",1960,"Vesper Sparrow3.mp3","g",TRUE,"5e2f1e401a4075000d1bee59","21","American Robin5.mp3","Western Meadowlark3.mp3","Vesper Sparrow3.mp3","g","2022-05-27 23:14:53","","","be81e7d9a9b77b828a6c90f3040b643f",0,"prolific","oaAlpha","",TRUE
151,1,"audio-keyboard-response",114,464083,"0.0-62.0-2.0-0.0","5e2f1e401a4075000d1bee59","","","","","",1541,"Northern Cardinal6.mp3","h",TRUE,"5e2f1e401a4075000d1bee59","22","Chipping Sparrow4.mp3","Veery6.mp3","Northern Cardinal6.mp3","f","2022-05-27 23:14:53","","","be81e7d9a9b77b828a6c90f3040b643f",0,"prolific","oaAlpha","",FALSE
151,1,"audio-keyboard-response",119,476805,"0.0-64.1-0.1","5e2f1e401a4075000d1bee59","","","","","",1109,"Rubycrowned Kinglet3.mp3","f",TRUE,"5e2f1e401a4075000d1bee59","23","American Robin7.mp3","Rubycrowned Kinglet3.mp3","Swainsons Thrush3.mp3","h","2022-05-27 23:14:53","","","be81e7d9a9b77b828a6c90f3040b643f",0,"prolific","oaAlpha","",FALSE
151,1,"audio-keyboard-response",123,488045,"0.0-66.0-2.0-0.0","5e2f1e401a4075000d1bee59","","","","","",440,"Rubycrowned Kinglet1.mp3","g",TRUE,"5e2f1e401a4075000d1bee59","24","Acadian Flycatcher 7.mp3","House Finch1.mp3","Rubycrowned Kinglet1.mp3","g","2022-05-27 23:14:53","","","be81e7d9a9b77b828a6c90f3040b643f",0,"prolific","oaAlpha","",TRUE
151,1,"audio-keyboard-response",132,518418,"0.0-71.1-0.1","5e2f1e401a4075000d1bee59","","","","","",1619,"Hooded Warbler1.mp3","f",TRUE,"5e2f1e401a4075000d1bee59","25","Acadian Flycatcher 4.mp3","Hooded Warbler1.mp3","Northern Cardinal1.mp3","h","2022-05-27 23:14:53","","","be81e7d9a9b77b828a6c90f3040b643f",0,"prolific","oaAlpha","",FALSE
151,1,"audio-keyboard-response",136,530812,"0.0-73.0-2.0-0.0","5e2f1e401a4075000d1bee59","","","","","",2189,"Blackthroated Green Warbler5.mp3","h",TRUE,"5e2f1e401a4075000d1bee59","26","Blackthroated Green Warbler5.mp3","Lincolns Sparrow5.mp3","Rubycrowned Kinglet5.mp3","h","2022-05-27 23:14:53","","","be81e7d9a9b77b828a6c90f3040b643f",0,"prolific","oaAlpha","",TRUE
151,1,"audio-keyboard-response",141,539401,"0.0-75.1-0.1","5e2f1e401a4075000d1bee59","","","","","",32,"Carolina Wren3.mp3","h",TRUE,"5e2f1e401a4075000d1bee59","27","American Robin6.mp3","Carolina Wren3.mp3","Northern Mockingbird3.mp3","h","2022-05-27 23:14:53","","","be81e7d9a9b77b828a6c90f3040b643f",0,"prolific","oaAlpha","",TRUE
151,1,"audio-keyboard-response",145,550599,"0.0-77.0-2.0-0.0","5e2f1e401a4075000d1bee59","","","","","",1752,"Yellow Warbler Northern1.mp3","f",TRUE,"5e2f1e401a4075000d1bee59","28","Acadian Flycatcher 8.mp3","Swainsons Thrush1.mp3","Yellow Warbler Northern1.mp3","f","2022-05-27 23:14:53","","","be81e7d9a9b77b828a6c90f3040b643f",0,"prolific","oaAlpha","",TRUE
151,1,"audio-keyboard-response",154,568822,"0.0-79.2-1.2-0.2","5e2f1e401a4075000d1bee59","","","","","",939,"Eurasian Blackbird5.mp3","g",TRUE,"5e2f1e401a4075000d1bee59","29","Blackthroated Green Warbler4.mp3","Graycheeked Thrush5.mp3","Eurasian Blackbird5.mp3","h","2022-05-27 23:14:53","","","be81e7d9a9b77b828a6c90f3040b643f",0,"prolific","oaAlpha","",FALSE
151,1,"audio-keyboard-response",158,575749,"0.0-81.0-2.0-0.0","5e2f1e401a4075000d1bee59","","","","","",1411,"House Finch2.mp3","g",TRUE,"5e2f1e401a4075000d1bee59","30","American Redstart 4.mp3","Swainsons Thrush2.mp3","House Finch2.mp3","g","2022-05-27 23:14:53","","","be81e7d9a9b77b828a6c90f3040b643f",0,"prolific","oaAlpha","",TRUE
151,1,"audio-keyboard-response",163,587173,"0.0-83.1-0.1","5e2f1e401a4075000d1bee59","","","","","",2171,"Ovenbird5.mp3","f",TRUE,"5e2f1e401a4075000d1bee59","31","Blackthroated Green Warbler6.mp3","Ovenbird5.mp3","Hooded Warbler5.mp3","h","2022-05-27 23:14:53","","","be81e7d9a9b77b828a6c90f3040b643f",0,"prolific","oaAlpha","",FALSE
151,1,"audio-keyboard-response",167,596015,"0.0-85.0-2.0-0.0","5e2f1e401a4075000d1bee59","","","","","",2269,"Blackpoll Warbler6.mp3","h",TRUE,"5e2f1e401a4075000d1bee59","32","Blackpoll Warbler6.mp3","Yellow Warbler Northern4.mp3","Northern Cardinal4.mp3","h","2022-05-27 23:14:53","","","be81e7d9a9b77b828a6c90f3040b643f",0,"prolific","oaAlpha","",TRUE
151,1,"audio-keyboard-response",171,607274,"0.0-87.0-2.0-0.0","5e2f1e401a4075000d1bee59","","","","","",5752,"Acadian Flycatcher 6.mp3","h",TRUE,"5e2f1e401a4075000d1bee59","33","Acadian Flycatcher 6.mp3","Connecticut Warbler1.mp3","Graycheeked Thrush1.mp3","h","2022-05-27 23:14:53","","","be81e7d9a9b77b828a6c90f3040b643f",0,"prolific","oaAlpha","",TRUE
151,1,"audio-keyboard-response",175,618239,"0.0-89.0-2.0-0.0","5e2f1e401a4075000d1bee59","","","","","",2891,"Lincolns Sparrow6.mp3","f",TRUE,"5e2f1e401a4075000d1bee59","34","Chipping Sparrow8.mp3","Winter Wren6.mp3","Lincolns Sparrow6.mp3","g","2022-05-27 23:14:53","","","be81e7d9a9b77b828a6c90f3040b643f",0,"prolific","oaAlpha","",FALSE
151,1,"audio-keyboard-response",180,627012,"0.0-91.1-0.1","5e2f1e401a4075000d1bee59","","","","","",160,"Yellowthroated Warbler4.mp3","f",TRUE,"5e2f1e401a4075000d1bee59","35","Blackpoll Warbler8.mp3","Yellowthroated Warbler4.mp3","Hooded Warbler4.mp3","h","2022-05-27 23:14:53","","","be81e7d9a9b77b828a6c90f3040b643f",0,"prolific","oaAlpha","",FALSE
151,1,"audio-keyboard-response",185,636228,"0.0-93.1-0.1","5e2f1e401a4075000d1bee59","","","","","",349,"Lincolns Sparrow2.mp3","h",TRUE,"5e2f1e401a4075000d1bee59","36","American Redstart5.mp3","Lincolns Sparrow2.mp3","Hooded Warbler2.mp3","g","2022-05-27 23:14:53","","","be81e7d9a9b77b828a6c90f3040b643f",0,"prolific","oaAlpha","",FALSE
151,1,"audio-keyboard-response",190,648792,"0.0-95.1-0.1","5e2f1e401a4075000d1bee59","","","","","",1301,"Tennessee Warbler4.mp3","g",TRUE,"5e2f1e401a4075000d1bee59","37","Blackpoll Warbler5.mp3","Tennessee Warbler4.mp3","Vesper Sparrow4.mp3","h","2022-05-27 23:14:53","","","be81e7d9a9b77b828a6c90f3040b643f",0,"prolific","oaAlpha","",FALSE
151,1,"audio-keyboard-response",195,662752,"0.0-97.1-0.1","5e2f1e401a4075000d1bee59","","","","","",2960,"Ovenbird6.mp3","f",TRUE,"5e2f1e401a4075000d1bee59","38","Chipping Sparrow5.mp3","Ovenbird6.mp3","Northern Mockingbird6.mp3","h","2022-05-27 23:14:53","","","be81e7d9a9b77b828a6c90f3040b643f",0,"prolific","oaAlpha","",FALSE
151,1,"audio-keyboard-response",199,677904,"0.0-99.0-2.0-0.0","5e2f1e401a4075000d1bee59","","","","","",5560,"Acadian Flycatcher 5.mp3","h",TRUE,"5e2f1e401a4075000d1bee59","39","Acadian Flycatcher 5.mp3","Veery 39.mp3","Lincolns Sparrow1.mp3","h","2022-05-27 23:14:53","","","be81e7d9a9b77b828a6c90f3040b643f",0,"prolific","oaAlpha","",TRUE
151,1,"audio-keyboard-response",203,684871,"0.0-101.0-2.0-0.0","5e2f1e401a4075000d1bee59","","","","","",1301,"American Redstart7.mp3","f",TRUE,"5e2f1e401a4075000d1bee59","40","American Redstart7.mp3","Connecticut Warbler2.mp3","Tennessee Warbler2.mp3","h","2022-05-27 23:14:53","","","be81e7d9a9b77b828a6c90f3040b643f",0,"prolific","oaAlpha","",FALSE
151,1,"audio-keyboard-response",208,693478,"0.0-103.1-0.1","5e2f1e401a4075000d1bee59","","","","","",941,"Connecticut Warbler5.mp3","h",TRUE,"5e2f1e401a4075000d1bee59","41","Blackthroated Green Warbler7.mp3","Connecticut Warbler5.mp3","Blackthroated Blue Warbler5.mp3","h","2022-05-27 23:14:53","","","be81e7d9a9b77b828a6c90f3040b643f",0,"prolific","oaAlpha","",TRUE
151,1,"audio-keyboard-response",214,708168,"0.0-105.1-1.1-0.1","5e2f1e401a4075000d1bee59","","","","","",248,"Yellowrumped Warbler Myrtle4.mp3","f",TRUE,"5e2f1e401a4075000d1bee59","42","Blackpoll Warbler 42.mp3","Yellowrumped Warbler Myrtle4.mp3","Cerulean Warbler 42.mp3","f","2022-05-27 23:14:53","","","be81e7d9a9b77b828a6c90f3040b643f",0,"prolific","oaAlpha","",TRUE
151,1,"audio-keyboard-response",219,725104,"0.0-107.1-0.1","5e2f1e401a4075000d1bee59","","","","","",2440,"Tennessee Warbler.mp3","f",TRUE,"5e2f1e401a4075000d1bee59","43","Chipping Sparrow6.mp3","Tennessee Warbler.mp3","Rubycrowned Kinglet6.mp3","g","2022-05-27 23:14:53","","","be81e7d9a9b77b828a6c90f3040b643f",0,"prolific","oaAlpha","",FALSE
151,1,"audio-keyboard-response",224,733031,"0.0-109.1-0.1","5e2f1e401a4075000d1bee59","","","","","",261,"Yellow Warbler Northern5.mp3","f",TRUE,"5e2f1e401a4075000d1bee59","44","Blackthroated Green Warbler8.mp3","Yellow Warbler Northern5.mp3","Yellowrumped Warbler Myrtle5.mp3","h","2022-05-27 23:14:53","","","be81e7d9a9b77b828a6c90f3040b643f",0,"prolific","oaAlpha","",FALSE
151,1,"audio-keyboard-response",228,739530,"0.0-111.0-2.0-0.0","5e2f1e401a4075000d1bee59","","","","","",19,"Blackthroated Blue Warbler2.mp3","g",TRUE,"5e2f1e401a4075000d1bee59","45","American Redstart6.mp3","Yellowthroated Warbler2.mp3","Blackthroated Blue Warbler2.mp3","g","2022-05-27 23:14:53","","","be81e7d9a9b77b828a6c90f3040b643f",0,"prolific","oaAlpha","",TRUE
151,1,"audio-keyboard-response",235,758213,"0.0-113.1-2.1-0.1","5e2f1e401a4075000d1bee59","","","","","",1648,"Vesper Sparrow6.mp3","h",TRUE,"5e2f1e401a4075000d1bee59","46","Chipping Sparrow7.mp3","Whitecrowned Sparrow6.mp3","Vesper Sparrow6.mp3","f","2022-05-27 23:14:53","","","be81e7d9a9b77b828a6c90f3040b643f",0,"prolific","oaAlpha","",FALSE
151,1,"audio-keyboard-response",243,779663,"0.0-115.2-0.2","5e2f1e401a4075000d1bee59","","","","","",1331,"Northern Cardinal3.mp3","f",TRUE,"5e2f1e401a4075000d1bee59","47","American Robin8.mp3","Northern Cardinal3.mp3","Ovenbird3.mp3","h","2022-05-27 23:14:53","","","be81e7d9a9b77b828a6c90f3040b643f",0,"prolific","oaAlpha","",FALSE
151,1,"audio-keyboard-response",249,789883,"0.0-117.1-1.1-0.1","5e2f1e401a4075000d1bee59","","","","","",1312,"Northern Mockingbird 48.mp3","g",TRUE,"5e2f1e401a4075000d1bee59","48","American Redstart 48.mp3","Yellowrumped Warbler Myrtle2.mp3","Northern Mockingbird 48.mp3","h","2022-05-27 23:14:53","","","be81e7d9a9b77b828a6c90f3040b643f",0,"prolific","oaAlpha","",FALSE
155,1,"audio-keyboard-response",8,54115,"0.0-7.0-0.0","610068e5f60debf1dafc444d","","","","","",1858,"Blackthroated Blue Warbler 1.mp3","f",TRUE,"610068e5f60debf1dafc444d","1","Acadian Flycatcher 1.mp3","Blackthroated Blue Warbler 1.mp3","Brown Thrasher 1.mp3","h","2022-05-27 23:21:56","","","be81e7d9a9b77b828a6c90f3040b643f",0,"prolific","oaAlpha","",FALSE
155,1,"audio-keyboard-response",12,71241,"0.0-9.0-2.0-0.0","610068e5f60debf1dafc444d","","","","","",2490,"Eastern Towhee 1.mp3","g",TRUE,"610068e5f60debf1dafc444d","2","Acadian Flycatcher 2.mp3","Carolina Wren 1.mp3","Eastern Towhee 1.mp3","g","2022-05-27 23:21:56","","","be81e7d9a9b77b828a6c90f3040b643f",0,"prolific","oaAlpha","",TRUE
155,1,"audio-keyboard-response",16,84839,"0.0-11.0-2.0-0.0","610068e5f60debf1dafc444d","","","","","",2078,"Hermit Thrush 1.mp3","g",TRUE,"610068e5f60debf1dafc444d","3","Acadian Flycatcher 3.mp3","Eurasian Blackbird 1.mp3","Hermit Thrush 1.mp3","g","2022-05-27 23:21:56","","","be81e7d9a9b77b828a6c90f3040b643f",0,"prolific","oaAlpha","",TRUE
155,1,"audio-keyboard-response",21,110888,"0.0-14.0-2.0-0.0","610068e5f60debf1dafc444d","","","","","",1347,"American Redstart1.mp3","h",TRUE,"610068e5f60debf1dafc444d","4","American Redstart1.mp3","Wood Thrush 2.mp3","Winter Wren 2.mp3","h","2022-05-27 23:21:56","","","be81e7d9a9b77b828a6c90f3040b643f",0,"prolific","oaAlpha","",TRUE
155,1,"audio-keyboard-response",24,117946,"0.0-16.0-1.0-0.0","610068e5f60debf1dafc444d","","","","","",2119,"Western Meadowlark2.mp3","h",TRUE,"610068e5f60debf1dafc444d","5","American Redstart2.mp3","Whitecrowned Sparrow 2.mp3","Western Meadowlark2.mp3","h","2022-05-27 23:21:56","","","be81e7d9a9b77b828a6c90f3040b643f",0,"prolific","oaAlpha","",TRUE
155,1,"audio-keyboard-response",28,129641,"0.0-18.0-2.0-0.0","610068e5f60debf1dafc444d","","","","","",1939,"American Redstart3.mp3","h",TRUE,"610068e5f60debf1dafc444d","6","American Redstart3.mp3","Vesper Sparrow 2.mp3","Veery2.mp3","h","2022-05-27 23:21:56","","","be81e7d9a9b77b828a6c90f3040b643f",0,"prolific","oaAlpha","",TRUE
155,1,"audio-keyboard-response",32,153094,"0.0-21.0-1.0-0.0","610068e5f60debf1dafc444d","","","","","",2287,"American Robin1.mp3","g",TRUE,"610068e5f60debf1dafc444d","7","American Robin1.mp3","Hooded Warbler3.mp3","Sedge Wren7.mp3","g","2022-05-27 23:21:56","","","be81e7d9a9b77b828a6c90f3040b643f",0,"prolific","oaAlpha","",TRUE
155,1,"audio-keyboard-response",36,164058,"0.0-23.0-2.0-0.0","610068e5f60debf1dafc444d","","","","","",2299,"Eurasian Blackbird3.mp3","f",TRUE,"610068e5f60debf1dafc444d","8","American Robin2.mp3","Brown Thrasher 3.mp3","Eurasian Blackbird3.mp3","f","2022-05-27 23:21:56","","","be81e7d9a9b77b828a6c90f3040b643f",0,"prolific","oaAlpha","",TRUE
155,1,"audio-keyboard-response",40,173088,"0.0-25.0-2.0-0.0","610068e5f60debf1dafc444d","","","","","",755,"Gray Catbird 3.mp3","f",TRUE,"610068e5f60debf1dafc444d","9","American Robin3.mp3","Connecticut Warbler 3.mp3","Gray Catbird 3.mp3","f","2022-05-27 23:21:56","","","be81e7d9a9b77b828a6c90f3040b643f",0,"prolific","oaAlpha","",TRUE
155,1,"audio-keyboard-response",43,189342,"0.0-28.0-0.0","610068e5f60debf1dafc444d","","","","","",1712,"Blackpoll Warbler1.mp3","f",TRUE,"610068e5f60debf1dafc444d","10","Blackpoll Warbler1.mp3","Wood Thrush 4.mp3","Whitecrowned Sparrow4.mp3","f","2022-05-27 23:21:56","","","be81e7d9a9b77b828a6c90f3040b643f",0,"prolific","oaAlpha","",TRUE
155,1,"audio-keyboard-response",47,205923,"0.0-30.0-2.0-0.0","610068e5f60debf1dafc444d","","","","","",2519,"Blackpoll Warbler 11.mp3","h",TRUE,"610068e5f60debf1dafc444d","11","Blackpoll Warbler 11.mp3","Cerulean Warbler 11.mp3","Eurasian Blackbird 11.mp3","h","2022-05-27 23:21:56","","","be81e7d9a9b77b828a6c90f3040b643f",0,"prolific","oaAlpha","",TRUE
155,1,"audio-keyboard-response",49,208595,"0.0-32.0-0.0","610068e5f60debf1dafc444d","","","","","",1660,"Blackpoll Warbler3.mp3","f",TRUE,"610068e5f60debf1dafc444d","12","Blackpoll Warbler3.mp3","Veery4.mp3","Swainsons Thrush 4.mp3","f","2022-05-27 23:21:56","","","be81e7d9a9b77b828a6c90f3040b643f",0,"prolific","oaAlpha","",TRUE
155,1,"audio-keyboard-response",52,224727,"0.0-35.0-0.0","610068e5f60debf1dafc444d","","","","","",1643,"Blackthroated Green Warbler1.mp3","f",TRUE,"610068e5f60debf1dafc444d","13","Blackthroated Green Warbler1.mp3","Northern Cardinal 5.mp3","Sedge Wren 5.mp3","f","2022-05-27 23:21:56","","","be81e7d9a9b77b828a6c90f3040b643f",0,"prolific","oaAlpha","",TRUE
155,1,"audio-keyboard-response",55,229318,"0.0-37.0-1.0-0.0","610068e5f60debf1dafc444d","","","","","",1353,"Blackthroated Green Warbler 2.mp3","g",TRUE,"610068e5f60debf1dafc444d","14","Blackthroated Green Warbler 2.mp3","Northern Mockingbird 5.mp3","House Finch 5.mp3","g","2022-05-27 23:21:56","","","be81e7d9a9b77b828a6c90f3040b643f",0,"prolific","oaAlpha","",TRUE
155,1,"audio-keyboard-response",59,236077,"0.0-39.0-2.0-0.0","610068e5f60debf1dafc444d","","","","","",1248,"Blackthroated Green Warbler 3.mp3","h",TRUE,"610068e5f60debf1dafc444d","15","Blackthroated Green Warbler 3.mp3","Hermit Thrush 5.mp3","Gray Catbird 5.mp3","h","2022-05-27 23:21:56","","","be81e7d9a9b77b828a6c90f3040b643f",0,"prolific","oaAlpha","",TRUE
155,1,"audio-keyboard-response",63,255416,"0.0-42.0-1.0-0.0","610068e5f60debf1dafc444d","","","","","",1591,"Chipping Sparrow1.mp3","g",TRUE,"610068e5f60debf1dafc444d","16","Chipping Sparrow1.mp3","Western Meadowlark 6.mp3","Hooded Warbler 6.mp3","g","2022-05-27 23:21:56","","","be81e7d9a9b77b828a6c90f3040b643f",0,"prolific","oaAlpha","",TRUE
155,1,"audio-keyboard-response",67,261566,"0.0-44.0-2.0-0.0","610068e5f60debf1dafc444d","","","","","",836,"Chipping Sparrow2.mp3","h",TRUE,"610068e5f60debf1dafc444d","17","Chipping Sparrow2.mp3","Swainsons Thrush 6.mp3","Hermit Thrush 6.mp3","h","2022-05-27 23:21:56","","","be81e7d9a9b77b828a6c90f3040b643f",0,"prolific","oaAlpha","",TRUE
155,1,"audio-keyboard-response",71,272374,"0.0-46.0-2.0-0.0","610068e5f60debf1dafc444d","","","","","",1596,"Chipping Sparrow3.mp3","h",TRUE,"610068e5f60debf1dafc444d","18","Chipping Sparrow3.mp3","Gray Catbird 18.mp3","Housefinch 18.mp3","h","2022-05-27 23:21:56","","","be81e7d9a9b77b828a6c90f3040b643f",0,"prolific","oaAlpha","",TRUE
155,1,"audio-keyboard-response",83,391393,"0.0-56.0-2.0-0.0","610068e5f60debf1dafc444d","","","","","",987,"American Robin4.mp3","h",TRUE,"610068e5f60debf1dafc444d","19","American Robin4.mp3","Graycheeked Thrush3.mp3","Hermit Thrush 3.mp3","h","2022-05-27 23:21:56","","","be81e7d9a9b77b828a6c90f3040b643f",0,"prolific","oaAlpha","",TRUE
155,1,"audio-keyboard-response",87,398584,"0.0-58.0-2.0-0.0","610068e5f60debf1dafc444d","","","","","",1312,"Rubycrowned Kinglet4.mp3","f",TRUE,"610068e5f60debf1dafc444d","20","Blackpoll Warbler4.mp3","Sedge Wren4.mp3","Rubycrowned Kinglet4.mp3","f","2022-05-27 23:21:56","","","be81e7d9a9b77b828a6c90f3040b643f",0,"prolific","oaAlpha","",TRUE
155,1,"audio-keyboard-response",90,403624,"0.0-60.0-1.0-0.0","610068e5f60debf1dafc444d","","","","","",1440,"American Robin5.mp3","g",TRUE,"610068e5f60debf1dafc444d","21","American Robin5.mp3","Western Meadowlark3.mp3","Vesper Sparrow3.mp3","g","2022-05-27 23:21:56","","","be81e7d9a9b77b828a6c90f3040b643f",0,"prolific","oaAlpha","",TRUE
155,1,"audio-keyboard-response",94,412519,"0.0-62.0-2.0-0.0","610068e5f60debf1dafc444d","","","","","",1782,"Northern Cardinal6.mp3","f",TRUE,"610068e5f60debf1dafc444d","22","Chipping Sparrow4.mp3","Veery6.mp3","Northern Cardinal6.mp3","f","2022-05-27 23:21:56","","","be81e7d9a9b77b828a6c90f3040b643f",0,"prolific","oaAlpha","",TRUE
155,1,"audio-keyboard-response",98,422488,"0.0-64.0-2.0-0.0","610068e5f60debf1dafc444d","","","","","",952,"American Robin7.mp3","h",TRUE,"610068e5f60debf1dafc444d","23","American Robin7.mp3","Rubycrowned Kinglet3.mp3","Swainsons Thrush3.mp3","h","2022-05-27 23:21:56","","","be81e7d9a9b77b828a6c90f3040b643f",0,"prolific","oaAlpha","",TRUE
155,1,"audio-keyboard-response",102,435616,"0.0-66.0-2.0-0.0","610068e5f60debf1dafc444d","","","","","",2328,"Rubycrowned Kinglet1.mp3","h",TRUE,"610068e5f60debf1dafc444d","24","Acadian Flycatcher 7.mp3","House Finch1.mp3","Rubycrowned Kinglet1.mp3","g","2022-05-27 23:21:56","","","be81e7d9a9b77b828a6c90f3040b643f",0,"prolific","oaAlpha","",FALSE
155,1,"audio-keyboard-response",113,471668,"0.0-71.1-2.1-0.1","610068e5f60debf1dafc444d","","","","","",1225,"Acadian Flycatcher 4.mp3","h",TRUE,"610068e5f60debf1dafc444d","25","Acadian Flycatcher 4.mp3","Hooded Warbler1.mp3","Northern Cardinal1.mp3","h","2022-05-27 23:21:56","","","be81e7d9a9b77b828a6c90f3040b643f",0,"prolific","oaAlpha","",TRUE
155,1,"audio-keyboard-response",117,484032,"0.0-73.0-2.0-0.0","610068e5f60debf1dafc444d","","","","","",2200,"Blackthroated Green Warbler5.mp3","h",TRUE,"610068e5f60debf1dafc444d","26","Blackthroated Green Warbler5.mp3","Lincolns Sparrow5.mp3","Rubycrowned Kinglet5.mp3","h","2022-05-27 23:21:56","","","be81e7d9a9b77b828a6c90f3040b643f",0,"prolific","oaAlpha","",TRUE
155,1,"audio-keyboard-response",121,491223,"0.0-75.0-2.0-0.0","610068e5f60debf1dafc444d","","","","","",1167,"American Robin6.mp3","h",TRUE,"610068e5f60debf1dafc444d","27","American Robin6.mp3","Carolina Wren3.mp3","Northern Mockingbird3.mp3","h","2022-05-27 23:21:56","","","be81e7d9a9b77b828a6c90f3040b643f",0,"prolific","oaAlpha","",TRUE
155,1,"audio-keyboard-response",126,504737,"0.0-77.1-0.1","610068e5f60debf1dafc444d","","","","","",1956,"Acadian Flycatcher 8.mp3","h",TRUE,"610068e5f60debf1dafc444d","28","Acadian Flycatcher 8.mp3","Swainsons Thrush1.mp3","Yellow Warbler Northern1.mp3","f","2022-05-27 23:21:56","","","be81e7d9a9b77b828a6c90f3040b643f",0,"prolific","oaAlpha","",FALSE
155,1,"audio-keyboard-response",131,514426,"0.0-79.1-0.1","610068e5f60debf1dafc444d","","","","","",1689,"Graycheeked Thrush5.mp3","h",TRUE,"610068e5f60debf1dafc444d","29","Blackthroated Green Warbler4.mp3","Graycheeked Thrush5.mp3","Eurasian Blackbird5.mp3","h","2022-05-27 23:21:56","","","be81e7d9a9b77b828a6c90f3040b643f",0,"prolific","oaAlpha","",TRUE
155,1,"audio-keyboard-response",135,521287,"0.0-81.0-2.0-0.0","610068e5f60debf1dafc444d","","","","","",1387,"House Finch2.mp3","g",TRUE,"610068e5f60debf1dafc444d","30","American Redstart 4.mp3","Swainsons Thrush2.mp3","House Finch2.mp3","g","2022-05-27 23:21:56","","","be81e7d9a9b77b828a6c90f3040b643f",0,"prolific","oaAlpha","",TRUE
155,1,"audio-keyboard-response",140,531292,"0.0-83.1-0.1","610068e5f60debf1dafc444d","","","","","",778,"Ovenbird5.mp3","g",TRUE,"610068e5f60debf1dafc444d","31","Blackthroated Green Warbler6.mp3","Ovenbird5.mp3","Hooded Warbler5.mp3","h","2022-05-27 23:21:56","","","be81e7d9a9b77b828a6c90f3040b643f",0,"prolific","oaAlpha","",FALSE
155,1,"audio-keyboard-response",144,539640,"0.0-85.0-2.0-0.0","610068e5f60debf1dafc444d","","","","","",1800,"Blackpoll Warbler6.mp3","f",TRUE,"610068e5f60debf1dafc444d","32","Blackpoll Warbler6.mp3","Yellow Warbler Northern4.mp3","Northern Cardinal4.mp3","h","2022-05-27 23:21:56","","","be81e7d9a9b77b828a6c90f3040b643f",0,"prolific","oaAlpha","",FALSE
155,1,"audio-keyboard-response",150,554075,"0.0-87.1-1.1-0.1","610068e5f60debf1dafc444d","","","","","",673,"Graycheeked Thrush1.mp3","h",TRUE,"610068e5f60debf1dafc444d","33","Acadian Flycatcher 6.mp3","Connecticut Warbler1.mp3","Graycheeked Thrush1.mp3","h","2022-05-27 23:21:56","","","be81e7d9a9b77b828a6c90f3040b643f",0,"prolific","oaAlpha","",TRUE
155,1,"audio-keyboard-response",155,568398,"0.0-89.1-0.1","610068e5f60debf1dafc444d","","","","","",2537,"Winter Wren6.mp3","h",TRUE,"610068e5f60debf1dafc444d","34","Chipping Sparrow8.mp3","Winter Wren6.mp3","Lincolns Sparrow6.mp3","g","2022-05-27 23:21:56","","","be81e7d9a9b77b828a6c90f3040b643f",0,"prolific","oaAlpha","",FALSE
155,1,"audio-keyboard-response",159,576644,"0.0-91.0-2.0-0.0","610068e5f60debf1dafc444d","","","","","",2334,"Blackpoll Warbler8.mp3","g",TRUE,"610068e5f60debf1dafc444d","35","Blackpoll Warbler8.mp3","Yellowthroated Warbler4.mp3","Hooded Warbler4.mp3","h","2022-05-27 23:21:56","","","be81e7d9a9b77b828a6c90f3040b643f",0,"prolific","oaAlpha","",FALSE
155,1,"audio-keyboard-response",165,589349,"0.0-93.1-1.1-0.1","610068e5f60debf1dafc444d","","","","","",557,"American Redstart5.mp3","g",TRUE,"610068e5f60debf1dafc444d","36","American Redstart5.mp3","Lincolns Sparrow2.mp3","Hooded Warbler2.mp3","g","2022-05-27 23:21:56","","","be81e7d9a9b77b828a6c90f3040b643f",0,"prolific","oaAlpha","",TRUE
155,1,"audio-keyboard-response",170,602294,"0.0-95.1-0.1","610068e5f60debf1dafc444d","","","","","",1689,"Tennessee Warbler4.mp3","g",TRUE,"610068e5f60debf1dafc444d","37","Blackpoll Warbler5.mp3","Tennessee Warbler4.mp3","Vesper Sparrow4.mp3","h","2022-05-27 23:21:56","","","be81e7d9a9b77b828a6c90f3040b643f",0,"prolific","oaAlpha","",FALSE
155,1,"audio-keyboard-response",174,610788,"0.0-97.0-2.0-0.0","610068e5f60debf1dafc444d","","","","","",1329,"Chipping Sparrow5.mp3","f",TRUE,"610068e5f60debf1dafc444d","38","Chipping Sparrow5.mp3","Ovenbird6.mp3","Northern Mockingbird6.mp3","h","2022-05-27 23:21:56","","","be81e7d9a9b77b828a6c90f3040b643f",0,"prolific","oaAlpha","",FALSE
155,1,"audio-keyboard-response",178,624818,"0.0-99.0-2.0-0.0","610068e5f60debf1dafc444d","","","","","",4458,"Acadian Flycatcher 5.mp3","g",TRUE,"610068e5f60debf1dafc444d","39","Acadian Flycatcher 5.mp3","Veery 39.mp3","Lincolns Sparrow1.mp3","h","2022-05-27 23:21:56","","","be81e7d9a9b77b828a6c90f3040b643f",0,"prolific","oaAlpha","",FALSE
155,1,"audio-keyboard-response",182,632276,"0.0-101.0-2.0-0.0","610068e5f60debf1dafc444d","","","","","",1834,"American Redstart7.mp3","g",TRUE,"610068e5f60debf1dafc444d","40","American Redstart7.mp3","Connecticut Warbler2.mp3","Tennessee Warbler2.mp3","h","2022-05-27 23:21:56","","","be81e7d9a9b77b828a6c90f3040b643f",0,"prolific","oaAlpha","",FALSE
155,1,"audio-keyboard-response",186,638439,"0.0-103.0-2.0-0.0","610068e5f60debf1dafc444d","","","","","",1358,"Blackthroated Green Warbler7.mp3","h",TRUE,"610068e5f60debf1dafc444d","41","Blackthroated Green Warbler7.mp3","Connecticut Warbler5.mp3","Blackthroated Blue Warbler5.mp3","h","2022-05-27 23:21:56","","","be81e7d9a9b77b828a6c90f3040b643f",0,"prolific","oaAlpha","",TRUE
155,1,"audio-keyboard-response",191,649418,"0.0-105.1-0.1","610068e5f60debf1dafc444d","","","","","",244,"Blackpoll Warbler 42.mp3","f",TRUE,"610068e5f60debf1dafc444d","42","Blackpoll Warbler 42.mp3","Yellowrumped Warbler Myrtle4.mp3","Cerulean Warbler 42.mp3","f","2022-05-27 23:21:56","","","be81e7d9a9b77b828a6c90f3040b643f",0,"prolific","oaAlpha","",TRUE
155,1,"audio-keyboard-response",195,658417,"0.0-107.0-2.0-0.0","610068e5f60debf1dafc444d","","","","","",702,"Rubycrowned Kinglet6.mp3","h",TRUE,"610068e5f60debf1dafc444d","43","Chipping Sparrow6.mp3","Tennessee Warbler.mp3","Rubycrowned Kinglet6.mp3","g","2022-05-27 23:21:56","","","be81e7d9a9b77b828a6c90f3040b643f",0,"prolific","oaAlpha","",FALSE
155,1,"audio-keyboard-response",200,666898,"0.0-109.1-0.1","610068e5f60debf1dafc444d","","","","","",848,"Yellow Warbler Northern5.mp3","h",TRUE,"610068e5f60debf1dafc444d","44","Blackthroated Green Warbler8.mp3","Yellow Warbler Northern5.mp3","Yellowrumped Warbler Myrtle5.mp3","h","2022-05-27 23:21:56","","","be81e7d9a9b77b828a6c90f3040b643f",0,"prolific","oaAlpha","",TRUE
155,1,"audio-keyboard-response",203,672737,"0.0-111.0-1.0-0.0","610068e5f60debf1dafc444d","","","","","",1631,"American Redstart6.mp3","g",TRUE,"610068e5f60debf1dafc444d","45","American Redstart6.mp3","Yellowthroated Warbler2.mp3","Blackthroated Blue Warbler2.mp3","g","2022-05-27 23:21:56","","","be81e7d9a9b77b828a6c90f3040b643f",0,"prolific","oaAlpha","",TRUE
155,1,"audio-keyboard-response",207,682902,"0.0-113.0-2.0-0.0","610068e5f60debf1dafc444d","","","","","",2990,"Vesper Sparrow6.mp3","g",TRUE,"610068e5f60debf1dafc444d","46","Chipping Sparrow7.mp3","Whitecrowned Sparrow6.mp3","Vesper Sparrow6.mp3","f","2022-05-27 23:21:56","","","be81e7d9a9b77b828a6c90f3040b643f",0,"prolific","oaAlpha","",FALSE
155,1,"audio-keyboard-response",211,692389,"0.0-115.0-2.0-0.0","610068e5f60debf1dafc444d","","","","","",1062,"American Robin8.mp3","h",TRUE,"610068e5f60debf1dafc444d","47","American Robin8.mp3","Northern Cardinal3.mp3","Ovenbird3.mp3","h","2022-05-27 23:21:56","","","be81e7d9a9b77b828a6c90f3040b643f",0,"prolific","oaAlpha","",TRUE
