"trial_type","trial_index","time_elapsed","internal_node_id","run_id","condition","recorded_at","source_code_version","id","attn","src","study","success","timeout","failed_images","failed_audio","failed_video","rt","stimulus","response","CorrRes","Correct","SbjID","Trial","TestImage","TestTrial","AttentionFails","attentionTrial","corr","trialN"
"image-keyboard-response",17,61524,"0.0-17.0",100,1,"2022-06-09 20:56:56","6bdea4aee053250f8215222e21306ad9","60e1b28a1787fec873ce7fee",0,"prolific","oaAlpha","","","","","",2477,"trial1.jpg","h",2,"true","60e1b28a1787fec873ce7fee",1,NA,"true",0,"",TRUE,1
"image-keyboard-response",19,65201,"0.0-19.0",100,1,"2022-06-09 20:56:56","6bdea4aee053250f8215222e21306ad9","60e1b28a1787fec873ce7fee",0,"prolific","oaAlpha","","","","","",2164,"trial2.jpg","g",1,"true","60e1b28a1787fec873ce7fee",2,NA,"true",0,"",TRUE,2
"image-keyboard-response",21,69371,"0.0-21.0",100,1,"2022-06-09 20:56:56","6bdea4aee053250f8215222e21306ad9","60e1b28a1787fec873ce7fee",0,"prolific","oaAlpha","","","","","",2658,"trial3.jpg","j",3,"true","60e1b28a1787fec873ce7fee",3,NA,"true",0,"",TRUE,3
"image-keyboard-response",27,85025,"0.0-27.0",100,1,"2022-06-09 20:56:56","6bdea4aee053250f8215222e21306ad9","60e1b28a1787fec873ce7fee",0,"prolific","oaAlpha","","","","","",2840,"trial4.jpg","h",2,"true","60e1b28a1787fec873ce7fee",4,NA,"true",0,"",TRUE,4
"image-keyboard-response",29,88651,"0.0-29.0",100,1,"2022-06-09 20:56:56","6bdea4aee053250f8215222e21306ad9","60e1b28a1787fec873ce7fee",0,"prolific","oaAlpha","","","","","",2113,"trial5.jpg","j",3,"true","60e1b28a1787fec873ce7fee",5,NA,"true",0,"",TRUE,5
"image-keyboard-response",31,92988,"0.0-31.0",100,1,"2022-06-09 20:56:56","6bdea4aee053250f8215222e21306ad9","60e1b28a1787fec873ce7fee",0,"prolific","oaAlpha","","","","","",2824,"trial6.jpg","h",2,"true","60e1b28a1787fec873ce7fee",6,NA,"true",0,"",TRUE,6
"image-keyboard-response",37,107333,"0.0-37.0",100,1,"2022-06-09 20:56:56","6bdea4aee053250f8215222e21306ad9","60e1b28a1787fec873ce7fee",0,"prolific","oaAlpha","","","","","",2463,"trial7.jpg","j",3,"true","60e1b28a1787fec873ce7fee",7,NA,"true",0,"",TRUE,7
"image-keyboard-response",39,110795,"0.0-39.0",100,1,"2022-06-09 20:56:56","6bdea4aee053250f8215222e21306ad9","60e1b28a1787fec873ce7fee",0,"prolific","oaAlpha","","","","","",1949,"trial8.jpg","g",1,"true","60e1b28a1787fec873ce7fee",8,NA,"true",0,"",TRUE,8
"image-keyboard-response",41,114145,"0.0-41.0",100,1,"2022-06-09 20:56:56","6bdea4aee053250f8215222e21306ad9","60e1b28a1787fec873ce7fee",0,"prolific","oaAlpha","","","","","",1837,"trial9.jpg","j",3,"true","60e1b28a1787fec873ce7fee",9,NA,"true",0,"",TRUE,9
"image-keyboard-response",47,128019,"0.0-47.0",100,1,"2022-06-09 20:56:56","6bdea4aee053250f8215222e21306ad9","60e1b28a1787fec873ce7fee",0,"prolific","oaAlpha","","","","","",1945,"trial10.jpg","j",3,"true","60e1b28a1787fec873ce7fee",10,NA,"true",0,"",TRUE,10
"image-keyboard-response",49,131410,"0.0-49.0",100,1,"2022-06-09 20:56:56","6bdea4aee053250f8215222e21306ad9","60e1b28a1787fec873ce7fee",0,"prolific","oaAlpha","","","","","",1877,"trial11.jpg","g",1,"true","60e1b28a1787fec873ce7fee",11,NA,"true",0,"",TRUE,11
"image-keyboard-response",51,134894,"0.0-51.0",100,1,"2022-06-09 20:56:56","6bdea4aee053250f8215222e21306ad9","60e1b28a1787fec873ce7fee",0,"prolific","oaAlpha","","","","","",1971,"trial12.jpg","j",3,"true","60e1b28a1787fec873ce7fee",12,NA,"true",0,"",TRUE,12
"image-keyboard-response",57,148361,"0.0-57.0",100,1,"2022-06-09 20:56:56","6bdea4aee053250f8215222e21306ad9","60e1b28a1787fec873ce7fee",0,"prolific","oaAlpha","","","","","",1607,"trial13.jpg","g",1,"true","60e1b28a1787fec873ce7fee",13,NA,"true",0,"",TRUE,13
"image-keyboard-response",59,151738,"0.0-59.0",100,1,"2022-06-09 20:56:56","6bdea4aee053250f8215222e21306ad9","60e1b28a1787fec873ce7fee",0,"prolific","oaAlpha","","","","","",1672,"trial14.jpg","h",2,"true","60e1b28a1787fec873ce7fee",14,NA,"true",0,"",TRUE,14
"image-keyboard-response",61,154188,"0.0-61.0",100,1,"2022-06-09 20:56:56","6bdea4aee053250f8215222e21306ad9","60e1b28a1787fec873ce7fee",0,"prolific","oaAlpha","","","","","",937,"trial15.jpg","g",1,"true","60e1b28a1787fec873ce7fee",15,NA,"true",0,"",TRUE,15
"image-keyboard-response",67,168008,"0.0-67.0",100,1,"2022-06-09 20:56:56","6bdea4aee053250f8215222e21306ad9","60e1b28a1787fec873ce7fee",0,"prolific","oaAlpha","","","","","",2135,"trial16.jpg","h",2,"true","60e1b28a1787fec873ce7fee",16,NA,"true",0,"",TRUE,16
"image-keyboard-response",69,171084,"0.0-69.0",100,1,"2022-06-09 20:56:56","6bdea4aee053250f8215222e21306ad9","60e1b28a1787fec873ce7fee",0,"prolific","oaAlpha","","","","","",1562,"trial17.jpg","h",2,"true","60e1b28a1787fec873ce7fee",17,NA,"true",0,"",TRUE,17
"image-keyboard-response",71,174702,"0.0-71.0",100,1,"2022-06-09 20:56:56","6bdea4aee053250f8215222e21306ad9","60e1b28a1787fec873ce7fee",0,"prolific","oaAlpha","","","","","",2103,"trial18.jpg","g",1,"true","60e1b28a1787fec873ce7fee",18,NA,"true",0,"",TRUE,18
"image-keyboard-response",76,209994,"0.0-76.0",100,1,"2022-06-09 20:56:56","6bdea4aee053250f8215222e21306ad9","60e1b28a1787fec873ce7fee",0,"prolific","oaAlpha","","","","","",6713,"trial19.jpg","h",2,"true","60e1b28a1787fec873ce7fee",19,NA,"true",0,"",TRUE,19
"image-keyboard-response",77,214547,"0.0-77.0",100,1,"2022-06-09 20:56:56","6bdea4aee053250f8215222e21306ad9","60e1b28a1787fec873ce7fee",0,"prolific","oaAlpha","","","","","",4043,"trial20.jpg","g",1,"true","60e1b28a1787fec873ce7fee",20,NA,"true",0,"",TRUE,20
"image-keyboard-response",78,218921,"0.0-78.0",100,1,"2022-06-09 20:56:56","6bdea4aee053250f8215222e21306ad9","60e1b28a1787fec873ce7fee",0,"prolific","oaAlpha","","","","","",3864,"trial21.jpg","g",1,"true","60e1b28a1787fec873ce7fee",21,NA,"true",0,"",TRUE,21
"image-keyboard-response",79,222751,"0.0-79.0",100,1,"2022-06-09 20:56:56","6bdea4aee053250f8215222e21306ad9","60e1b28a1787fec873ce7fee",0,"prolific","oaAlpha","","","","","",3319,"trial22.jpg","j",3,"true","60e1b28a1787fec873ce7fee",22,NA,"true",0,"",TRUE,22
"image-keyboard-response",80,227364,"0.0-80.0",100,1,"2022-06-09 20:56:56","6bdea4aee053250f8215222e21306ad9","60e1b28a1787fec873ce7fee",0,"prolific","oaAlpha","","","","","",4103,"trial23.jpg","g",1,"true","60e1b28a1787fec873ce7fee",23,NA,"true",0,"",TRUE,23
"image-keyboard-response",81,230214,"0.0-81.0",100,1,"2022-06-09 20:56:56","6bdea4aee053250f8215222e21306ad9","60e1b28a1787fec873ce7fee",0,"prolific","oaAlpha","","","","","",2338,"trial24.jpg","g",3,"false","60e1b28a1787fec873ce7fee",24,NA,"true",0,"",FALSE,24
"image-keyboard-response",82,233608,"0.0-82.0",100,1,"2022-06-09 20:56:56","6bdea4aee053250f8215222e21306ad9","60e1b28a1787fec873ce7fee",0,"prolific","oaAlpha","","","","","",2884,"trial25.jpg","g",1,"true","60e1b28a1787fec873ce7fee",25,NA,"true",0,"",TRUE,25
"image-keyboard-response",83,239425,"0.0-83.0",100,1,"2022-06-09 20:56:56","6bdea4aee053250f8215222e21306ad9","60e1b28a1787fec873ce7fee",0,"prolific","oaAlpha","","","","","",5306,"trial26.jpg","h",1,"false","60e1b28a1787fec873ce7fee",26,NA,"true",0,"",FALSE,26
"image-keyboard-response",84,242236,"0.0-84.0",100,1,"2022-06-09 20:56:56","6bdea4aee053250f8215222e21306ad9","60e1b28a1787fec873ce7fee",0,"prolific","oaAlpha","","","","","",2299,"trial27.jpg","g",3,"false","60e1b28a1787fec873ce7fee",27,NA,"true",0,"",FALSE,27
"image-keyboard-response",85,244051,"0.0-85.0",100,1,"2022-06-09 20:56:56","6bdea4aee053250f8215222e21306ad9","60e1b28a1787fec873ce7fee",0,"prolific","oaAlpha","","","","","",1305,"trial28.jpg","g",2,"false","60e1b28a1787fec873ce7fee",28,NA,"true",0,"",FALSE,28
"image-keyboard-response",86,246706,"0.0-86.0",100,1,"2022-06-09 20:56:56","6bdea4aee053250f8215222e21306ad9","60e1b28a1787fec873ce7fee",0,"prolific","oaAlpha","","","","","",2144,"trial29.jpg","j",3,"true","60e1b28a1787fec873ce7fee",29,NA,"true",0,"",TRUE,29
"image-keyboard-response",87,250672,"0.0-87.0",100,1,"2022-06-09 20:56:56","6bdea4aee053250f8215222e21306ad9","60e1b28a1787fec873ce7fee",0,"prolific","oaAlpha","","","","","",3454,"trial30.jpg","j",2,"false","60e1b28a1787fec873ce7fee",30,NA,"true",0,"",FALSE,30
"image-keyboard-response",88,254081,"0.0-88.0",100,1,"2022-06-09 20:56:56","6bdea4aee053250f8215222e21306ad9","60e1b28a1787fec873ce7fee",0,"prolific","oaAlpha","","","","","",2897,"trial31.jpg","g",2,"false","60e1b28a1787fec873ce7fee",31,NA,"true",0,"",FALSE,31
"image-keyboard-response",89,256112,"0.0-89.0",100,1,"2022-06-09 20:56:56","6bdea4aee053250f8215222e21306ad9","60e1b28a1787fec873ce7fee",0,"prolific","oaAlpha","","","","","",1519,"trial32.jpg","h",2,"true","60e1b28a1787fec873ce7fee",32,NA,"true",0,"",TRUE,32
"image-keyboard-response",90,257783,"0.0-90.0",100,1,"2022-06-09 20:56:56","6bdea4aee053250f8215222e21306ad9","60e1b28a1787fec873ce7fee",0,"prolific","oaAlpha","","","","","",1160,"trial33.jpg","g",1,"true","60e1b28a1787fec873ce7fee",33,NA,"true",0,"",TRUE,33
"image-keyboard-response",91,260700,"0.0-91.0",100,1,"2022-06-09 20:56:56","6bdea4aee053250f8215222e21306ad9","60e1b28a1787fec873ce7fee",0,"prolific","oaAlpha","","","","","",2405,"trial34.jpg","j",3,"true","60e1b28a1787fec873ce7fee",34,NA,"true",0,"",TRUE,34
"image-keyboard-response",92,262417,"0.0-92.0",100,1,"2022-06-09 20:56:56","6bdea4aee053250f8215222e21306ad9","60e1b28a1787fec873ce7fee",0,"prolific","oaAlpha","","","","","",1203,"trial35.jpg","h",2,"true","60e1b28a1787fec873ce7fee",35,NA,"true",0,"",TRUE,35
"image-keyboard-response",93,263984,"0.0-93.0",100,1,"2022-06-09 20:56:56","6bdea4aee053250f8215222e21306ad9","60e1b28a1787fec873ce7fee",0,"prolific","oaAlpha","","","","","",1055,"trial36.jpg","g",3,"false","60e1b28a1787fec873ce7fee",36,NA,"true",0,"",FALSE,36
"image-keyboard-response",97,289764,"0.0-97.0",100,1,"2022-06-09 20:56:56","6bdea4aee053250f8215222e21306ad9","60e1b28a1787fec873ce7fee",0,"prolific","oaAlpha","","","","","",2372,"trial37.jpg","h",1,"false","60e1b28a1787fec873ce7fee",37,NA,"true",0,"",FALSE,37
"image-keyboard-response",98,293578,"0.0-98.0",100,1,"2022-06-09 20:56:56","6bdea4aee053250f8215222e21306ad9","60e1b28a1787fec873ce7fee",0,"prolific","oaAlpha","","","","","",3302,"trial38.jpg","g",2,"false","60e1b28a1787fec873ce7fee",38,NA,"true",0,"",FALSE,38
"image-keyboard-response",99,295425,"0.0-99.0",100,1,"2022-06-09 20:56:56","6bdea4aee053250f8215222e21306ad9","60e1b28a1787fec873ce7fee",0,"prolific","oaAlpha","","","","","",1334,"trial39.jpg","j",1,"false","60e1b28a1787fec873ce7fee",39,NA,"true",0,"",FALSE,39
"image-keyboard-response",100,297584,"0.0-100.0",100,1,"2022-06-09 20:56:56","6bdea4aee053250f8215222e21306ad9","60e1b28a1787fec873ce7fee",0,"prolific","oaAlpha","","","","","",1647,"trial40.jpg","g",3,"false","60e1b28a1787fec873ce7fee",40,NA,"true",0,"",FALSE,40
"image-keyboard-response",101,299753,"0.0-101.0",100,1,"2022-06-09 20:56:56","6bdea4aee053250f8215222e21306ad9","60e1b28a1787fec873ce7fee",0,"prolific","oaAlpha","","","","","",1657,"trial41.jpg","j",3,"true","60e1b28a1787fec873ce7fee",41,NA,"true",0,"",TRUE,41
"image-keyboard-response",102,301701,"0.0-102.0",100,1,"2022-06-09 20:56:56","6bdea4aee053250f8215222e21306ad9","60e1b28a1787fec873ce7fee",0,"prolific","oaAlpha","","","","","",1436,"trial42.jpg","h",1,"false","60e1b28a1787fec873ce7fee",42,NA,"true",0,"",FALSE,42
"image-keyboard-response",103,303541,"0.0-103.0",100,1,"2022-06-09 20:56:56","6bdea4aee053250f8215222e21306ad9","60e1b28a1787fec873ce7fee",0,"prolific","oaAlpha","","","","","",1329,"trial43.jpg","g",3,"false","60e1b28a1787fec873ce7fee",43,NA,"true",0,"",FALSE,43
"image-keyboard-response",104,304917,"0.0-104.0",100,1,"2022-06-09 20:56:56","6bdea4aee053250f8215222e21306ad9","60e1b28a1787fec873ce7fee",0,"prolific","oaAlpha","","","","","",861,"trial44.jpg","j",3,"true","60e1b28a1787fec873ce7fee",44,NA,"true",0,"",TRUE,44
"image-keyboard-response",106,311156,"0.0-106.0",100,1,"2022-06-09 20:56:56","6bdea4aee053250f8215222e21306ad9","60e1b28a1787fec873ce7fee",0,"prolific","oaAlpha","","","","","",1823,"trial45.jpg","g",3,"false","60e1b28a1787fec873ce7fee",45,NA,"true",0,"",FALSE,45
"image-keyboard-response",107,313006,"0.0-107.0",100,1,"2022-06-09 20:56:56","6bdea4aee053250f8215222e21306ad9","60e1b28a1787fec873ce7fee",0,"prolific","oaAlpha","","","","","",1339,"trial46.jpg","j",1,"false","60e1b28a1787fec873ce7fee",46,NA,"true",0,"",FALSE,46
"image-keyboard-response",108,314718,"0.0-108.0",100,1,"2022-06-09 20:56:56","6bdea4aee053250f8215222e21306ad9","60e1b28a1787fec873ce7fee",0,"prolific","oaAlpha","","","","","",1201,"trial47.jpg","g",2,"false","60e1b28a1787fec873ce7fee",47,NA,"true",0,"",FALSE,47
"image-keyboard-response",109,316737,"0.0-109.0",100,1,"2022-06-09 20:56:56","6bdea4aee053250f8215222e21306ad9","60e1b28a1787fec873ce7fee",0,"prolific","oaAlpha","","","","","",1508,"trial48.jpg","h",2,"true","60e1b28a1787fec873ce7fee",48,NA,"true",0,"",TRUE,48
"image-keyboard-response",110,319452,"0.0-110.0",100,1,"2022-06-09 20:56:56","6bdea4aee053250f8215222e21306ad9","60e1b28a1787fec873ce7fee",0,"prolific","oaAlpha","","","","","",2204,"trial49.jpg","h",2,"true","60e1b28a1787fec873ce7fee",49,NA,"true",0,"",TRUE,49
"image-keyboard-response",111,320929,"0.0-111.0",100,1,"2022-06-09 20:56:56","6bdea4aee053250f8215222e21306ad9","60e1b28a1787fec873ce7fee",0,"prolific","oaAlpha","","","","","",965,"trial50.jpg","j",1,"false","60e1b28a1787fec873ce7fee",50,NA,"true",0,"",FALSE,50
"image-keyboard-response",112,322755,"0.0-112.0",100,1,"2022-06-09 20:56:56","6bdea4aee053250f8215222e21306ad9","60e1b28a1787fec873ce7fee",0,"prolific","oaAlpha","","","","","",1314,"trial51.jpg","h",2,"true","60e1b28a1787fec873ce7fee",51,NA,"true",0,"",TRUE,51
"image-keyboard-response",113,323953,"0.0-113.0",100,1,"2022-06-09 20:56:56","6bdea4aee053250f8215222e21306ad9","60e1b28a1787fec873ce7fee",0,"prolific","oaAlpha","","","","","",687,"trial52.jpg","g",1,"true","60e1b28a1787fec873ce7fee",52,NA,"true",0,"",TRUE,52
"image-keyboard-response",114,325385,"0.0-114.0",100,1,"2022-06-09 20:56:56","6bdea4aee053250f8215222e21306ad9","60e1b28a1787fec873ce7fee",0,"prolific","oaAlpha","","","","","",921,"trial53.jpg","j",3,"true","60e1b28a1787fec873ce7fee",53,NA,"true",0,"",TRUE,53
"image-keyboard-response",115,326849,"0.0-115.0",100,1,"2022-06-09 20:56:56","6bdea4aee053250f8215222e21306ad9","60e1b28a1787fec873ce7fee",0,"prolific","oaAlpha","","","","","",951,"trial54.jpg","h",2,"true","60e1b28a1787fec873ce7fee",54,NA,"true",0,"",TRUE,54
"image-keyboard-response",116,328588,"0.0-116.0",100,1,"2022-06-09 20:56:56","6bdea4aee053250f8215222e21306ad9","60e1b28a1787fec873ce7fee",0,"prolific","oaAlpha","","","","","",1227,"trial55.jpg","j",2,"false","60e1b28a1787fec873ce7fee",55,NA,"true",0,"",FALSE,55
"image-keyboard-response",117,330012,"0.0-117.0",100,1,"2022-06-09 20:56:56","6bdea4aee053250f8215222e21306ad9","60e1b28a1787fec873ce7fee",0,"prolific","oaAlpha","","","","","",912,"trial56.jpg","g",2,"false","60e1b28a1787fec873ce7fee",56,NA,"true",0,"",FALSE,56
"image-keyboard-response",118,331583,"0.0-118.0",100,1,"2022-06-09 20:56:56","6bdea4aee053250f8215222e21306ad9","60e1b28a1787fec873ce7fee",0,"prolific","oaAlpha","","","","","",1059,"trial57.jpg","j",1,"false","60e1b28a1787fec873ce7fee",57,NA,"true",0,"",FALSE,57
"image-keyboard-response",119,333258,"0.0-119.0",100,1,"2022-06-09 20:56:56","6bdea4aee053250f8215222e21306ad9","60e1b28a1787fec873ce7fee",0,"prolific","oaAlpha","","","","","",1163,"trial58.jpg","h",3,"false","60e1b28a1787fec873ce7fee",58,NA,"true",0,"",FALSE,58
"image-keyboard-response",120,335144,"0.0-120.0",100,1,"2022-06-09 20:56:56","6bdea4aee053250f8215222e21306ad9","60e1b28a1787fec873ce7fee",0,"prolific","oaAlpha","","","","","",1373,"trial59.jpg","j",3,"true","60e1b28a1787fec873ce7fee",59,NA,"true",0,"",TRUE,59
"image-keyboard-response",121,336574,"0.0-121.0",100,1,"2022-06-09 20:56:56","6bdea4aee053250f8215222e21306ad9","60e1b28a1787fec873ce7fee",0,"prolific","oaAlpha","","","","","",918,"trial60.jpg","j",2,"false","60e1b28a1787fec873ce7fee",60,NA,"true",0,"",FALSE,60
"image-keyboard-response",122,338346,"0.0-122.0",100,1,"2022-06-09 20:56:56","6bdea4aee053250f8215222e21306ad9","60e1b28a1787fec873ce7fee",0,"prolific","oaAlpha","","","","","",1260,"trial61.jpg","g",2,"false","60e1b28a1787fec873ce7fee",61,NA,"true",0,"",FALSE,61
"image-keyboard-response",123,340333,"0.0-123.0",100,1,"2022-06-09 20:56:56","6bdea4aee053250f8215222e21306ad9","60e1b28a1787fec873ce7fee",0,"prolific","oaAlpha","","","","","",1475,"trial62.jpg","h",1,"false","60e1b28a1787fec873ce7fee",62,NA,"true",0,"",FALSE,62
"image-keyboard-response",124,342151,"0.0-124.0",100,1,"2022-06-09 20:56:56","6bdea4aee053250f8215222e21306ad9","60e1b28a1787fec873ce7fee",0,"prolific","oaAlpha","","","","","",1306,"trial63.jpg","g",1,"true","60e1b28a1787fec873ce7fee",63,NA,"true",0,"",TRUE,63
"image-keyboard-response",125,344611,"0.0-125.0",100,1,"2022-06-09 20:56:56","6bdea4aee053250f8215222e21306ad9","60e1b28a1787fec873ce7fee",0,"prolific","oaAlpha","","","","","",1948,"trial64.jpg","h",2,"true","60e1b28a1787fec873ce7fee",64,NA,"true",0,"",TRUE,64
"image-keyboard-response",126,346038,"0.0-126.0",100,1,"2022-06-09 20:56:56","6bdea4aee053250f8215222e21306ad9","60e1b28a1787fec873ce7fee",0,"prolific","oaAlpha","","","","","",915,"trial65.jpg","g",1,"true","60e1b28a1787fec873ce7fee",65,NA,"true",0,"",TRUE,65
"image-keyboard-response",127,347317,"0.0-127.0",100,1,"2022-06-09 20:56:56","6bdea4aee053250f8215222e21306ad9","60e1b28a1787fec873ce7fee",0,"prolific","oaAlpha","","","","","",768,"trial66.jpg","j",1,"false","60e1b28a1787fec873ce7fee",66,NA,"true",0,"",FALSE,66
"image-keyboard-response",128,348553,"0.0-128.0",100,1,"2022-06-09 20:56:56","6bdea4aee053250f8215222e21306ad9","60e1b28a1787fec873ce7fee",0,"prolific","oaAlpha","","","","","",724,"trial67.jpg","h",3,"false","60e1b28a1787fec873ce7fee",67,NA,"true",0,"",FALSE,67
"image-keyboard-response",129,349978,"0.0-129.0",100,1,"2022-06-09 20:56:56","6bdea4aee053250f8215222e21306ad9","60e1b28a1787fec873ce7fee",0,"prolific","oaAlpha","","","","","",912,"trial68.jpg","j",1,"false","60e1b28a1787fec873ce7fee",68,NA,"true",0,"",FALSE,68
"image-keyboard-response",130,351292,"0.0-130.0",100,1,"2022-06-09 20:56:56","6bdea4aee053250f8215222e21306ad9","60e1b28a1787fec873ce7fee",0,"prolific","oaAlpha","","","","","",803,"trial69.jpg","g",3,"false","60e1b28a1787fec873ce7fee",69,NA,"true",0,"",FALSE,69
"image-keyboard-response",131,352561,"0.0-131.0",100,1,"2022-06-09 20:56:56","6bdea4aee053250f8215222e21306ad9","60e1b28a1787fec873ce7fee",0,"prolific","oaAlpha","","","","","",757,"trial70.jpg","j",3,"true","60e1b28a1787fec873ce7fee",70,NA,"true",0,"",TRUE,70
"image-keyboard-response",132,353536,"0.0-132.0",100,1,"2022-06-09 20:56:56","6bdea4aee053250f8215222e21306ad9","60e1b28a1787fec873ce7fee",0,"prolific","oaAlpha","","","","","",463,"trial71.jpg","h",3,"false","60e1b28a1787fec873ce7fee",71,NA,"true",0,"",FALSE,71
"image-keyboard-response",133,354986,"0.0-133.0",100,1,"2022-06-09 20:56:56","6bdea4aee053250f8215222e21306ad9","60e1b28a1787fec873ce7fee",0,"prolific","oaAlpha","","","","","",938,"trial72.jpg","j",2,"false","60e1b28a1787fec873ce7fee",72,NA,"true",0,"",FALSE,72
"image-keyboard-response",17,52431,"0.0-17.0",101,1,"2022-06-10 13:45:08","6bdea4aee053250f8215222e21306ad9","5b3ae9ab1d4b680001695f8d",0,"prolific","oaAlpha","","","","","",5909,"trial1.jpg","h",2,"true","5b3ae9ab1d4b680001695f8d",1,NA,"true",0,"",TRUE,1
"image-keyboard-response",19,57007,"0.0-19.0",101,1,"2022-06-10 13:45:08","6bdea4aee053250f8215222e21306ad9","5b3ae9ab1d4b680001695f8d",0,"prolific","oaAlpha","","","","","",3069,"trial2.jpg","g",1,"true","5b3ae9ab1d4b680001695f8d",2,NA,"true",0,"",TRUE,2
"image-keyboard-response",21,60975,"0.0-21.0",101,1,"2022-06-10 13:45:08","6bdea4aee053250f8215222e21306ad9","5b3ae9ab1d4b680001695f8d",0,"prolific","oaAlpha","","","","","",2447,"trial3.jpg","j",3,"true","5b3ae9ab1d4b680001695f8d",3,NA,"true",0,"",TRUE,3
"image-keyboard-response",27,76695,"0.0-27.0",101,1,"2022-06-10 13:45:08","6bdea4aee053250f8215222e21306ad9","5b3ae9ab1d4b680001695f8d",0,"prolific","oaAlpha","","","","","",3511,"trial4.jpg","h",2,"true","5b3ae9ab1d4b680001695f8d",4,NA,"true",0,"",TRUE,4
"image-keyboard-response",29,80191,"0.0-29.0",101,1,"2022-06-10 13:45:08","6bdea4aee053250f8215222e21306ad9","5b3ae9ab1d4b680001695f8d",0,"prolific","oaAlpha","","","","","",1984,"trial5.jpg","j",3,"true","5b3ae9ab1d4b680001695f8d",5,NA,"true",0,"",TRUE,5
"image-keyboard-response",31,84111,"0.0-31.0",101,1,"2022-06-10 13:45:08","6bdea4aee053250f8215222e21306ad9","5b3ae9ab1d4b680001695f8d",0,"prolific","oaAlpha","","","","","",2411,"trial6.jpg","h",2,"true","5b3ae9ab1d4b680001695f8d",6,NA,"true",0,"",TRUE,6
"image-keyboard-response",37,100816,"0.0-37.0",101,1,"2022-06-10 13:45:08","6bdea4aee053250f8215222e21306ad9","5b3ae9ab1d4b680001695f8d",0,"prolific","oaAlpha","","","","","",1864,"trial7.jpg","j",3,"true","5b3ae9ab1d4b680001695f8d",7,NA,"true",0,"",TRUE,7
"image-keyboard-response",39,104119,"0.0-39.0",101,1,"2022-06-10 13:45:08","6bdea4aee053250f8215222e21306ad9","5b3ae9ab1d4b680001695f8d",0,"prolific","oaAlpha","","","","","",1794,"trial8.jpg","g",1,"true","5b3ae9ab1d4b680001695f8d",8,NA,"true",0,"",TRUE,8
"image-keyboard-response",41,107239,"0.0-41.0",101,1,"2022-06-10 13:45:08","6bdea4aee053250f8215222e21306ad9","5b3ae9ab1d4b680001695f8d",0,"prolific","oaAlpha","","","","","",1609,"trial9.jpg","j",3,"true","5b3ae9ab1d4b680001695f8d",9,NA,"true",0,"",TRUE,9
"image-keyboard-response",47,120823,"0.0-47.0",101,1,"2022-06-10 13:45:08","6bdea4aee053250f8215222e21306ad9","5b3ae9ab1d4b680001695f8d",0,"prolific","oaAlpha","","","","","",1826,"trial10.jpg","j",3,"true","5b3ae9ab1d4b680001695f8d",10,NA,"true",0,"",TRUE,10
"image-keyboard-response",49,123847,"0.0-49.0",101,1,"2022-06-10 13:45:08","6bdea4aee053250f8215222e21306ad9","5b3ae9ab1d4b680001695f8d",0,"prolific","oaAlpha","","","","","",1512,"trial11.jpg","g",1,"true","5b3ae9ab1d4b680001695f8d",11,NA,"true",0,"",TRUE,11
"image-keyboard-response",51,126727,"0.0-51.0",101,1,"2022-06-10 13:45:08","6bdea4aee053250f8215222e21306ad9","5b3ae9ab1d4b680001695f8d",0,"prolific","oaAlpha","","","","","",1368,"trial12.jpg","j",3,"true","5b3ae9ab1d4b680001695f8d",12,NA,"true",0,"",TRUE,12
"image-keyboard-response",57,141359,"0.0-57.0",101,1,"2022-06-10 13:45:08","6bdea4aee053250f8215222e21306ad9","5b3ae9ab1d4b680001695f8d",0,"prolific","oaAlpha","","","","","",2950,"trial13.jpg","g",1,"true","5b3ae9ab1d4b680001695f8d",13,NA,"true",0,"",TRUE,13
"image-keyboard-response",59,145671,"0.0-59.0",101,1,"2022-06-10 13:45:08","6bdea4aee053250f8215222e21306ad9","5b3ae9ab1d4b680001695f8d",0,"prolific","oaAlpha","","","","","",2800,"trial14.jpg","h",2,"true","5b3ae9ab1d4b680001695f8d",14,NA,"true",0,"",TRUE,14
"image-keyboard-response",61,148759,"0.0-61.0",101,1,"2022-06-10 13:45:08","6bdea4aee053250f8215222e21306ad9","5b3ae9ab1d4b680001695f8d",0,"prolific","oaAlpha","","","","","",1575,"trial15.jpg","g",1,"true","5b3ae9ab1d4b680001695f8d",15,NA,"true",0,"",TRUE,15
"image-keyboard-response",67,162671,"0.0-67.0",101,1,"2022-06-10 13:45:08","6bdea4aee053250f8215222e21306ad9","5b3ae9ab1d4b680001695f8d",0,"prolific","oaAlpha","","","","","",2254,"trial16.jpg","h",2,"true","5b3ae9ab1d4b680001695f8d",16,NA,"true",0,"",TRUE,16
"image-keyboard-response",69,165462,"0.0-69.0",101,1,"2022-06-10 13:45:08","6bdea4aee053250f8215222e21306ad9","5b3ae9ab1d4b680001695f8d",0,"prolific","oaAlpha","","","","","",1279,"trial17.jpg","h",2,"true","5b3ae9ab1d4b680001695f8d",17,NA,"true",0,"",TRUE,17
"image-keyboard-response",71,168199,"0.0-71.0",101,1,"2022-06-10 13:45:08","6bdea4aee053250f8215222e21306ad9","5b3ae9ab1d4b680001695f8d",0,"prolific","oaAlpha","","","","","",1223,"trial18.jpg","g",1,"true","5b3ae9ab1d4b680001695f8d",18,NA,"true",0,"",TRUE,18
"image-keyboard-response",76,201838,"0.0-76.0",101,1,"2022-06-10 13:45:08","6bdea4aee053250f8215222e21306ad9","5b3ae9ab1d4b680001695f8d",0,"prolific","oaAlpha","","","","","",6312,"trial19.jpg","h",2,"true","5b3ae9ab1d4b680001695f8d",19,NA,"true",0,"",TRUE,19
"image-keyboard-response",77,207246,"0.0-77.0",101,1,"2022-06-10 13:45:08","6bdea4aee053250f8215222e21306ad9","5b3ae9ab1d4b680001695f8d",0,"prolific","oaAlpha","","","","","",4900,"trial20.jpg","j",1,"false","5b3ae9ab1d4b680001695f8d",20,NA,"true",0,"",FALSE,20
"image-keyboard-response",78,211278,"0.0-78.0",101,1,"2022-06-10 13:45:08","6bdea4aee053250f8215222e21306ad9","5b3ae9ab1d4b680001695f8d",0,"prolific","oaAlpha","","","","","",3519,"trial21.jpg","j",1,"false","5b3ae9ab1d4b680001695f8d",21,NA,"true",0,"",FALSE,21
"image-keyboard-response",79,214494,"0.0-79.0",101,1,"2022-06-10 13:45:08","6bdea4aee053250f8215222e21306ad9","5b3ae9ab1d4b680001695f8d",0,"prolific","oaAlpha","","","","","",2707,"trial22.jpg","j",3,"true","5b3ae9ab1d4b680001695f8d",22,NA,"true",0,"",TRUE,22
"image-keyboard-response",80,217558,"0.0-80.0",101,1,"2022-06-10 13:45:08","6bdea4aee053250f8215222e21306ad9","5b3ae9ab1d4b680001695f8d",0,"prolific","oaAlpha","","","","","",2556,"trial23.jpg","g",1,"true","5b3ae9ab1d4b680001695f8d",23,NA,"true",0,"",TRUE,23
"image-keyboard-response",81,221750,"0.0-81.0",101,1,"2022-06-10 13:45:08","6bdea4aee053250f8215222e21306ad9","5b3ae9ab1d4b680001695f8d",0,"prolific","oaAlpha","","","","","",3684,"trial24.jpg","h",3,"false","5b3ae9ab1d4b680001695f8d",24,NA,"true",0,"",FALSE,24
"image-keyboard-response",82,224638,"0.0-82.0",101,1,"2022-06-10 13:45:08","6bdea4aee053250f8215222e21306ad9","5b3ae9ab1d4b680001695f8d",0,"prolific","oaAlpha","","","","","",2380,"trial25.jpg","g",1,"true","5b3ae9ab1d4b680001695f8d",25,NA,"true",0,"",TRUE,25
"image-keyboard-response",83,228230,"0.0-83.0",101,1,"2022-06-10 13:45:08","6bdea4aee053250f8215222e21306ad9","5b3ae9ab1d4b680001695f8d",0,"prolific","oaAlpha","","","","","",3085,"trial26.jpg","g",1,"true","5b3ae9ab1d4b680001695f8d",26,NA,"true",0,"",TRUE,26
"image-keyboard-response",84,231453,"0.0-84.0",101,1,"2022-06-10 13:45:08","6bdea4aee053250f8215222e21306ad9","5b3ae9ab1d4b680001695f8d",0,"prolific","oaAlpha","","","","","",2715,"trial27.jpg","j",3,"true","5b3ae9ab1d4b680001695f8d",27,NA,"true",0,"",TRUE,27
"image-keyboard-response",85,235070,"0.0-85.0",101,1,"2022-06-10 13:45:08","6bdea4aee053250f8215222e21306ad9","5b3ae9ab1d4b680001695f8d",0,"prolific","oaAlpha","","","","","",3108,"trial28.jpg","h",2,"true","5b3ae9ab1d4b680001695f8d",28,NA,"true",0,"",TRUE,28
"image-keyboard-response",86,237494,"0.0-86.0",101,1,"2022-06-10 13:45:08","6bdea4aee053250f8215222e21306ad9","5b3ae9ab1d4b680001695f8d",0,"prolific","oaAlpha","","","","","",1915,"trial29.jpg","j",3,"true","5b3ae9ab1d4b680001695f8d",29,NA,"true",0,"",TRUE,29
"image-keyboard-response",87,241726,"0.0-87.0",101,1,"2022-06-10 13:45:08","6bdea4aee053250f8215222e21306ad9","5b3ae9ab1d4b680001695f8d",0,"prolific","oaAlpha","","","","","",3724,"trial30.jpg","g",2,"false","5b3ae9ab1d4b680001695f8d",30,NA,"true",0,"",FALSE,30
"image-keyboard-response",88,244237,"0.0-88.0",101,1,"2022-06-10 13:45:08","6bdea4aee053250f8215222e21306ad9","5b3ae9ab1d4b680001695f8d",0,"prolific","oaAlpha","","","","","",1998,"trial31.jpg","h",2,"true","5b3ae9ab1d4b680001695f8d",31,NA,"true",0,"",TRUE,31
"image-keyboard-response",89,249069,"0.0-89.0",101,1,"2022-06-10 13:45:08","6bdea4aee053250f8215222e21306ad9","5b3ae9ab1d4b680001695f8d",0,"prolific","oaAlpha","","","","","",4323,"trial32.jpg","h",2,"true","5b3ae9ab1d4b680001695f8d",32,NA,"true",0,"",TRUE,32
"image-keyboard-response",90,252350,"0.0-90.0",101,1,"2022-06-10 13:45:08","6bdea4aee053250f8215222e21306ad9","5b3ae9ab1d4b680001695f8d",0,"prolific","oaAlpha","","","","","",2771,"trial33.jpg","g",1,"true","5b3ae9ab1d4b680001695f8d",33,NA,"true",0,"",TRUE,33
"image-keyboard-response",91,256742,"0.0-91.0",101,1,"2022-06-10 13:45:08","6bdea4aee053250f8215222e21306ad9","5b3ae9ab1d4b680001695f8d",0,"prolific","oaAlpha","","","","","",3884,"trial34.jpg","g",3,"false","5b3ae9ab1d4b680001695f8d",34,NA,"true",0,"",FALSE,34
"image-keyboard-response",92,260238,"0.0-92.0",101,1,"2022-06-10 13:45:08","6bdea4aee053250f8215222e21306ad9","5b3ae9ab1d4b680001695f8d",0,"prolific","oaAlpha","","","","","",2987,"trial35.jpg","h",2,"true","5b3ae9ab1d4b680001695f8d",35,NA,"true",0,"",TRUE,35
"image-keyboard-response",93,263686,"0.0-93.0",101,1,"2022-06-10 13:45:08","6bdea4aee053250f8215222e21306ad9","5b3ae9ab1d4b680001695f8d",0,"prolific","oaAlpha","","","","","",2940,"trial36.jpg","j",3,"true","5b3ae9ab1d4b680001695f8d",36,NA,"true",0,"",TRUE,36
"image-keyboard-response",97,295318,"0.0-97.0",101,1,"2022-06-10 13:45:08","6bdea4aee053250f8215222e21306ad9","5b3ae9ab1d4b680001695f8d",0,"prolific","oaAlpha","","","","","",5151,"trial37.jpg","h",1,"false","5b3ae9ab1d4b680001695f8d",37,NA,"true",0,"",FALSE,37
"image-keyboard-response",98,302286,"0.0-98.0",101,1,"2022-06-10 13:45:08","6bdea4aee053250f8215222e21306ad9","5b3ae9ab1d4b680001695f8d",0,"prolific","oaAlpha","","","","","",6455,"trial38.jpg","g",2,"false","5b3ae9ab1d4b680001695f8d",38,NA,"true",0,"",FALSE,38
"image-keyboard-response",99,308998,"0.0-99.0",101,1,"2022-06-10 13:45:08","6bdea4aee053250f8215222e21306ad9","5b3ae9ab1d4b680001695f8d",0,"prolific","oaAlpha","","","","","",6202,"trial39.jpg","h",1,"false","5b3ae9ab1d4b680001695f8d",39,NA,"true",0,"",FALSE,39
"image-keyboard-response",100,316830,"0.0-100.0",101,1,"2022-06-10 13:45:08","6bdea4aee053250f8215222e21306ad9","5b3ae9ab1d4b680001695f8d",0,"prolific","oaAlpha","","","","","",7318,"trial40.jpg","g",3,"false","5b3ae9ab1d4b680001695f8d",40,NA,"true",0,"",FALSE,40
"image-keyboard-response",101,323245,"0.0-101.0",101,1,"2022-06-10 13:45:08","6bdea4aee053250f8215222e21306ad9","5b3ae9ab1d4b680001695f8d",0,"prolific","oaAlpha","","","","","",5906,"trial41.jpg","j",3,"true","5b3ae9ab1d4b680001695f8d",41,NA,"true",0,"",TRUE,41
"image-keyboard-response",102,329869,"0.0-102.0",101,1,"2022-06-10 13:45:08","6bdea4aee053250f8215222e21306ad9","5b3ae9ab1d4b680001695f8d",0,"prolific","oaAlpha","","","","","",6114,"trial42.jpg","g",1,"true","5b3ae9ab1d4b680001695f8d",42,NA,"true",0,"",TRUE,42
"image-keyboard-response",103,337445,"0.0-103.0",101,1,"2022-06-10 13:45:08","6bdea4aee053250f8215222e21306ad9","5b3ae9ab1d4b680001695f8d",0,"prolific","oaAlpha","","","","","",7066,"trial43.jpg","h",3,"false","5b3ae9ab1d4b680001695f8d",43,NA,"true",0,"",FALSE,43
"image-keyboard-response",104,342469,"0.0-104.0",101,1,"2022-06-10 13:45:08","6bdea4aee053250f8215222e21306ad9","5b3ae9ab1d4b680001695f8d",0,"prolific","oaAlpha","","","","","",4515,"trial44.jpg","j",3,"true","5b3ae9ab1d4b680001695f8d",44,NA,"true",0,"",TRUE,44
"image-keyboard-response",106,349973,"0.0-106.0",101,1,"2022-06-10 13:45:08","6bdea4aee053250f8215222e21306ad9","5b3ae9ab1d4b680001695f8d",0,"prolific","oaAlpha","","","","","",4565,"trial45.jpg","g",3,"false","5b3ae9ab1d4b680001695f8d",45,NA,"true",0,"",FALSE,45
"image-keyboard-response",107,353101,"0.0-107.0",101,1,"2022-06-10 13:45:08","6bdea4aee053250f8215222e21306ad9","5b3ae9ab1d4b680001695f8d",0,"prolific","oaAlpha","","","","","",2618,"trial46.jpg","h",1,"false","5b3ae9ab1d4b680001695f8d",46,NA,"true",0,"",FALSE,46
"image-keyboard-response",108,361061,"0.0-108.0",101,1,"2022-06-10 13:45:08","6bdea4aee053250f8215222e21306ad9","5b3ae9ab1d4b680001695f8d",0,"prolific","oaAlpha","","","","","",7450,"trial47.jpg","g",2,"false","5b3ae9ab1d4b680001695f8d",47,NA,"true",0,"",FALSE,47
"image-keyboard-response",109,365829,"0.0-109.0",101,1,"2022-06-10 13:45:08","6bdea4aee053250f8215222e21306ad9","5b3ae9ab1d4b680001695f8d",0,"prolific","oaAlpha","","","","","",4258,"trial48.jpg","h",2,"true","5b3ae9ab1d4b680001695f8d",48,NA,"true",0,"",TRUE,48
"image-keyboard-response",110,370189,"0.0-110.0",101,1,"2022-06-10 13:45:08","6bdea4aee053250f8215222e21306ad9","5b3ae9ab1d4b680001695f8d",0,"prolific","oaAlpha","","","","","",3843,"trial49.jpg","g",2,"false","5b3ae9ab1d4b680001695f8d",49,NA,"true",0,"",FALSE,49
"image-keyboard-response",111,374821,"0.0-111.0",101,1,"2022-06-10 13:45:08","6bdea4aee053250f8215222e21306ad9","5b3ae9ab1d4b680001695f8d",0,"prolific","oaAlpha","","","","","",4110,"trial50.jpg","j",1,"false","5b3ae9ab1d4b680001695f8d",50,NA,"true",0,"",FALSE,50
"image-keyboard-response",112,379885,"0.0-112.0",101,1,"2022-06-10 13:45:08","6bdea4aee053250f8215222e21306ad9","5b3ae9ab1d4b680001695f8d",0,"prolific","oaAlpha","","","","","",4553,"trial51.jpg","h",2,"true","5b3ae9ab1d4b680001695f8d",51,NA,"true",0,"",TRUE,51
"image-keyboard-response",113,385221,"0.0-113.0",101,1,"2022-06-10 13:45:08","6bdea4aee053250f8215222e21306ad9","5b3ae9ab1d4b680001695f8d",0,"prolific","oaAlpha","","","","","",4826,"trial52.jpg","g",1,"true","5b3ae9ab1d4b680001695f8d",52,NA,"true",0,"",TRUE,52
"image-keyboard-response",114,389445,"0.0-114.0",101,1,"2022-06-10 13:45:08","6bdea4aee053250f8215222e21306ad9","5b3ae9ab1d4b680001695f8d",0,"prolific","oaAlpha","","","","","",3714,"trial53.jpg","j",3,"true","5b3ae9ab1d4b680001695f8d",53,NA,"true",0,"",TRUE,53
"image-keyboard-response",115,393045,"0.0-115.0",101,1,"2022-06-10 13:45:08","6bdea4aee053250f8215222e21306ad9","5b3ae9ab1d4b680001695f8d",0,"prolific","oaAlpha","","","","","",3090,"trial54.jpg","g",2,"false","5b3ae9ab1d4b680001695f8d",54,NA,"true",0,"",FALSE,54
"image-keyboard-response",116,397636,"0.0-116.0",101,1,"2022-06-10 13:45:08","6bdea4aee053250f8215222e21306ad9","5b3ae9ab1d4b680001695f8d",0,"prolific","oaAlpha","","","","","",4081,"trial55.jpg","h",2,"true","5b3ae9ab1d4b680001695f8d",55,NA,"true",0,"",TRUE,55
"image-keyboard-response",117,403077,"0.0-117.0",101,1,"2022-06-10 13:45:08","6bdea4aee053250f8215222e21306ad9","5b3ae9ab1d4b680001695f8d",0,"prolific","oaAlpha","","","","","",4928,"trial56.jpg","h",2,"true","5b3ae9ab1d4b680001695f8d",56,NA,"true",0,"",TRUE,56
"image-keyboard-response",118,408644,"0.0-118.0",101,1,"2022-06-10 13:45:08","6bdea4aee053250f8215222e21306ad9","5b3ae9ab1d4b680001695f8d",0,"prolific","oaAlpha","","","","","",5043,"trial57.jpg","h",1,"false","5b3ae9ab1d4b680001695f8d",57,NA,"true",0,"",FALSE,57
"image-keyboard-response",119,413565,"0.0-119.0",101,1,"2022-06-10 13:45:08","6bdea4aee053250f8215222e21306ad9","5b3ae9ab1d4b680001695f8d",0,"prolific","oaAlpha","","","","","",4410,"trial58.jpg","j",3,"true","5b3ae9ab1d4b680001695f8d",58,NA,"true",0,"",TRUE,58
"image-keyboard-response",120,419805,"0.0-120.0",101,1,"2022-06-10 13:45:08","6bdea4aee053250f8215222e21306ad9","5b3ae9ab1d4b680001695f8d",0,"prolific","oaAlpha","","","","","",5724,"trial59.jpg","g",3,"false","5b3ae9ab1d4b680001695f8d",59,NA,"true",0,"",FALSE,59
"image-keyboard-response",121,429588,"0.0-121.0",101,1,"2022-06-10 13:45:08","6bdea4aee053250f8215222e21306ad9","5b3ae9ab1d4b680001695f8d",0,"prolific","oaAlpha","","","","","",9273,"trial60.jpg","h",2,"true","5b3ae9ab1d4b680001695f8d",60,NA,"true",0,"",TRUE,60
"image-keyboard-response",122,432628,"0.0-122.0",101,1,"2022-06-10 13:45:08","6bdea4aee053250f8215222e21306ad9","5b3ae9ab1d4b680001695f8d",0,"prolific","oaAlpha","","","","","",2529,"trial61.jpg","h",2,"true","5b3ae9ab1d4b680001695f8d",61,NA,"true",0,"",TRUE,61
"image-keyboard-response",123,435836,"0.0-123.0",101,1,"2022-06-10 13:45:08","6bdea4aee053250f8215222e21306ad9","5b3ae9ab1d4b680001695f8d",0,"prolific","oaAlpha","","","","","",2696,"trial62.jpg","g",1,"true","5b3ae9ab1d4b680001695f8d",62,NA,"true",0,"",TRUE,62
"image-keyboard-response",124,441716,"0.0-124.0",101,1,"2022-06-10 13:45:08","6bdea4aee053250f8215222e21306ad9","5b3ae9ab1d4b680001695f8d",0,"prolific","oaAlpha","","","","","",5353,"trial63.jpg","g",1,"true","5b3ae9ab1d4b680001695f8d",63,NA,"true",0,"",TRUE,63
"image-keyboard-response",125,444972,"0.0-125.0",101,1,"2022-06-10 13:45:08","6bdea4aee053250f8215222e21306ad9","5b3ae9ab1d4b680001695f8d",0,"prolific","oaAlpha","","","","","",2744,"trial64.jpg","h",2,"true","5b3ae9ab1d4b680001695f8d",64,NA,"true",0,"",TRUE,64
"image-keyboard-response",126,448916,"0.0-126.0",101,1,"2022-06-10 13:45:08","6bdea4aee053250f8215222e21306ad9","5b3ae9ab1d4b680001695f8d",0,"prolific","oaAlpha","","","","","",3427,"trial65.jpg","h",1,"false","5b3ae9ab1d4b680001695f8d",65,NA,"true",0,"",FALSE,65
"image-keyboard-response",127,451828,"0.0-127.0",101,1,"2022-06-10 13:45:08","6bdea4aee053250f8215222e21306ad9","5b3ae9ab1d4b680001695f8d",0,"prolific","oaAlpha","","","","","",2400,"trial66.jpg","g",1,"true","5b3ae9ab1d4b680001695f8d",66,NA,"true",0,"",TRUE,66
"image-keyboard-response",128,455372,"0.0-128.0",101,1,"2022-06-10 13:45:08","6bdea4aee053250f8215222e21306ad9","5b3ae9ab1d4b680001695f8d",0,"prolific","oaAlpha","","","","","",3026,"trial67.jpg","j",3,"true","5b3ae9ab1d4b680001695f8d",67,NA,"true",0,"",TRUE,67
"image-keyboard-response",129,462100,"0.0-129.0",101,1,"2022-06-10 13:45:08","6bdea4aee053250f8215222e21306ad9","5b3ae9ab1d4b680001695f8d",0,"prolific","oaAlpha","","","","","",6217,"trial68.jpg","g",1,"true","5b3ae9ab1d4b680001695f8d",68,NA,"true",0,"",TRUE,68
"image-keyboard-response",130,468356,"0.0-130.0",101,1,"2022-06-10 13:45:08","6bdea4aee053250f8215222e21306ad9","5b3ae9ab1d4b680001695f8d",0,"prolific","oaAlpha","","","","","",5738,"trial69.jpg","g",3,"false","5b3ae9ab1d4b680001695f8d",69,NA,"true",0,"",FALSE,69
"image-keyboard-response",131,474772,"0.0-131.0",101,1,"2022-06-10 13:45:08","6bdea4aee053250f8215222e21306ad9","5b3ae9ab1d4b680001695f8d",0,"prolific","oaAlpha","","","","","",5890,"trial70.jpg","j",3,"true","5b3ae9ab1d4b680001695f8d",70,NA,"true",0,"",TRUE,70
"image-keyboard-response",132,478716,"0.0-132.0",101,1,"2022-06-10 13:45:08","6bdea4aee053250f8215222e21306ad9","5b3ae9ab1d4b680001695f8d",0,"prolific","oaAlpha","","","","","",3432,"trial71.jpg","j",3,"true","5b3ae9ab1d4b680001695f8d",71,NA,"true",0,"",TRUE,71
"image-keyboard-response",133,482948,"0.0-133.0",101,1,"2022-06-10 13:45:08","6bdea4aee053250f8215222e21306ad9","5b3ae9ab1d4b680001695f8d",0,"prolific","oaAlpha","","","","","",3720,"trial72.jpg","j",2,"false","5b3ae9ab1d4b680001695f8d",72,NA,"true",0,"",FALSE,72
"image-keyboard-response",17,55178,"0.0-17.0",102,1,"2022-06-11 18:45:33","6bdea4aee053250f8215222e21306ad9","6151ff3f670b63b35291cabc",0,"prolific","oaAlpha","","","","","",2918,"trial1.jpg","h",2,"true","6151ff3f670b63b35291cabc",1,NA,"true",0,"",TRUE,1
"image-keyboard-response",19,59416,"0.0-19.0",102,1,"2022-06-11 18:45:33","6bdea4aee053250f8215222e21306ad9","6151ff3f670b63b35291cabc",0,"prolific","oaAlpha","","","","","",2730,"trial2.jpg","g",1,"true","6151ff3f670b63b35291cabc",2,NA,"true",0,"",TRUE,2
"image-keyboard-response",21,62902,"0.0-21.0",102,1,"2022-06-11 18:45:33","6bdea4aee053250f8215222e21306ad9","6151ff3f670b63b35291cabc",0,"prolific","oaAlpha","","","","","",1975,"trial3.jpg","j",3,"true","6151ff3f670b63b35291cabc",3,NA,"true",0,"",TRUE,3
"image-keyboard-response",27,78146,"0.0-27.0",102,1,"2022-06-11 18:45:33","6bdea4aee053250f8215222e21306ad9","6151ff3f670b63b35291cabc",0,"prolific","oaAlpha","","","","","",3100,"trial4.jpg","h",2,"true","6151ff3f670b63b35291cabc",4,NA,"true",0,"",TRUE,4
"image-keyboard-response",29,82936,"0.0-29.0",102,1,"2022-06-11 18:45:33","6bdea4aee053250f8215222e21306ad9","6151ff3f670b63b35291cabc",0,"prolific","oaAlpha","","","","","",3280,"trial5.jpg","j",3,"true","6151ff3f670b63b35291cabc",5,NA,"true",0,"",TRUE,5
"image-keyboard-response",31,87729,"0.0-31.0",102,1,"2022-06-11 18:45:33","6bdea4aee053250f8215222e21306ad9","6151ff3f670b63b35291cabc",0,"prolific","oaAlpha","","","","","",3285,"trial6.jpg","h",2,"true","6151ff3f670b63b35291cabc",6,NA,"true",0,"",TRUE,6
"image-keyboard-response",37,102506,"0.0-37.0",102,1,"2022-06-11 18:45:33","6bdea4aee053250f8215222e21306ad9","6151ff3f670b63b35291cabc",0,"prolific","oaAlpha","","","","","",3110,"trial7.jpg","j",3,"true","6151ff3f670b63b35291cabc",7,NA,"true",0,"",TRUE,7
"image-keyboard-response",39,106149,"0.0-39.0",102,1,"2022-06-11 18:45:33","6bdea4aee053250f8215222e21306ad9","6151ff3f670b63b35291cabc",0,"prolific","oaAlpha","","","","","",2133,"trial8.jpg","g",1,"true","6151ff3f670b63b35291cabc",8,NA,"true",0,"",TRUE,8
"image-keyboard-response",41,109556,"0.0-41.0",102,1,"2022-06-11 18:45:33","6bdea4aee053250f8215222e21306ad9","6151ff3f670b63b35291cabc",0,"prolific","oaAlpha","","","","","",1894,"trial9.jpg","j",3,"true","6151ff3f670b63b35291cabc",9,NA,"true",0,"",TRUE,9
"image-keyboard-response",47,123107,"0.0-47.0",102,1,"2022-06-11 18:45:33","6bdea4aee053250f8215222e21306ad9","6151ff3f670b63b35291cabc",0,"prolific","oaAlpha","","","","","",1726,"trial10.jpg","j",3,"true","6151ff3f670b63b35291cabc",10,NA,"true",0,"",TRUE,10
"image-keyboard-response",49,126432,"0.0-49.0",102,1,"2022-06-11 18:45:33","6bdea4aee053250f8215222e21306ad9","6151ff3f670b63b35291cabc",0,"prolific","oaAlpha","","","","","",1813,"trial11.jpg","g",1,"true","6151ff3f670b63b35291cabc",11,NA,"true",0,"",TRUE,11
"image-keyboard-response",51,130074,"0.0-51.0",102,1,"2022-06-11 18:45:33","6bdea4aee053250f8215222e21306ad9","6151ff3f670b63b35291cabc",0,"prolific","oaAlpha","","","","","",2124,"trial12.jpg","j",3,"true","6151ff3f670b63b35291cabc",12,NA,"true",0,"",TRUE,12
"image-keyboard-response",57,143940,"0.0-57.0",102,1,"2022-06-11 18:45:33","6bdea4aee053250f8215222e21306ad9","6151ff3f670b63b35291cabc",0,"prolific","oaAlpha","","","","","",1840,"trial13.jpg","g",1,"true","6151ff3f670b63b35291cabc",13,NA,"true",0,"",TRUE,13
"image-keyboard-response",59,147751,"0.0-59.0",102,1,"2022-06-11 18:45:33","6bdea4aee053250f8215222e21306ad9","6151ff3f670b63b35291cabc",0,"prolific","oaAlpha","","","","","",2295,"trial14.jpg","h",2,"true","6151ff3f670b63b35291cabc",14,NA,"true",0,"",TRUE,14
"image-keyboard-response",61,150928,"0.0-61.0",102,1,"2022-06-11 18:45:33","6bdea4aee053250f8215222e21306ad9","6151ff3f670b63b35291cabc",0,"prolific","oaAlpha","","","","","",1662,"trial15.jpg","g",1,"true","6151ff3f670b63b35291cabc",15,NA,"true",0,"",TRUE,15
"image-keyboard-response",67,164596,"0.0-67.0",102,1,"2022-06-11 18:45:33","6bdea4aee053250f8215222e21306ad9","6151ff3f670b63b35291cabc",0,"prolific","oaAlpha","","","","","",1801,"trial16.jpg","h",2,"true","6151ff3f670b63b35291cabc",16,NA,"true",0,"",TRUE,16
"image-keyboard-response",69,167368,"0.0-69.0",102,1,"2022-06-11 18:45:33","6bdea4aee053250f8215222e21306ad9","6151ff3f670b63b35291cabc",0,"prolific","oaAlpha","","","","","",1255,"trial17.jpg","h",2,"true","6151ff3f670b63b35291cabc",17,NA,"true",0,"",TRUE,17
"image-keyboard-response",71,170418,"0.0-71.0",102,1,"2022-06-11 18:45:33","6bdea4aee053250f8215222e21306ad9","6151ff3f670b63b35291cabc",0,"prolific","oaAlpha","","","","","",1539,"trial18.jpg","g",1,"true","6151ff3f670b63b35291cabc",18,NA,"true",0,"",TRUE,18
"image-keyboard-response",76,209157,"0.0-76.0",102,1,"2022-06-11 18:45:33","6bdea4aee053250f8215222e21306ad9","6151ff3f670b63b35291cabc",0,"prolific","oaAlpha","","","","","",9139,"trial19.jpg","h",2,"true","6151ff3f670b63b35291cabc",19,NA,"true",0,"",TRUE,19
"image-keyboard-response",77,216171,"0.0-77.0",102,1,"2022-06-11 18:45:33","6bdea4aee053250f8215222e21306ad9","6151ff3f670b63b35291cabc",0,"prolific","oaAlpha","","","","","",6508,"trial20.jpg","g",1,"true","6151ff3f670b63b35291cabc",20,NA,"true",0,"",TRUE,20
"image-keyboard-response",78,221557,"0.0-78.0",102,1,"2022-06-11 18:45:33","6bdea4aee053250f8215222e21306ad9","6151ff3f670b63b35291cabc",0,"prolific","oaAlpha","","","","","",4877,"trial21.jpg","g",1,"true","6151ff3f670b63b35291cabc",21,NA,"true",0,"",TRUE,21
"image-keyboard-response",79,226124,"0.0-79.0",102,1,"2022-06-11 18:45:33","6bdea4aee053250f8215222e21306ad9","6151ff3f670b63b35291cabc",0,"prolific","oaAlpha","","","","","",4060,"trial22.jpg","j",3,"true","6151ff3f670b63b35291cabc",22,NA,"true",0,"",TRUE,22
"image-keyboard-response",80,230561,"0.0-80.0",102,1,"2022-06-11 18:45:33","6bdea4aee053250f8215222e21306ad9","6151ff3f670b63b35291cabc",0,"prolific","oaAlpha","","","","","",3927,"trial23.jpg","g",1,"true","6151ff3f670b63b35291cabc",23,NA,"true",0,"",TRUE,23
"image-keyboard-response",81,234523,"0.0-81.0",102,1,"2022-06-11 18:45:33","6bdea4aee053250f8215222e21306ad9","6151ff3f670b63b35291cabc",0,"prolific","oaAlpha","","","","","",3455,"trial24.jpg","j",3,"true","6151ff3f670b63b35291cabc",24,NA,"true",0,"",TRUE,24
"image-keyboard-response",82,240821,"0.0-82.0",102,1,"2022-06-11 18:45:33","6bdea4aee053250f8215222e21306ad9","6151ff3f670b63b35291cabc",0,"prolific","oaAlpha","","","","","",5788,"trial25.jpg","g",1,"true","6151ff3f670b63b35291cabc",25,NA,"true",0,"",TRUE,25
"image-keyboard-response",83,246207,"0.0-83.0",102,1,"2022-06-11 18:45:33","6bdea4aee053250f8215222e21306ad9","6151ff3f670b63b35291cabc",0,"prolific","oaAlpha","","","","","",4878,"trial26.jpg","h",1,"false","6151ff3f670b63b35291cabc",26,NA,"true",0,"",FALSE,26
"image-keyboard-response",84,255557,"0.0-84.0",102,1,"2022-06-11 18:45:33","6bdea4aee053250f8215222e21306ad9","6151ff3f670b63b35291cabc",0,"prolific","oaAlpha","","","","","",8842,"trial27.jpg","j",3,"true","6151ff3f670b63b35291cabc",27,NA,"true",0,"",TRUE,27
"image-keyboard-response",85,264109,"0.0-85.0",102,1,"2022-06-11 18:45:33","6bdea4aee053250f8215222e21306ad9","6151ff3f670b63b35291cabc",0,"prolific","oaAlpha","","","","","",8044,"trial28.jpg","g",2,"false","6151ff3f670b63b35291cabc",28,NA,"true",0,"",FALSE,28
"image-keyboard-response",86,274291,"0.0-86.0",102,1,"2022-06-11 18:45:33","6bdea4aee053250f8215222e21306ad9","6151ff3f670b63b35291cabc",0,"prolific","oaAlpha","","","","","",9669,"trial29.jpg","j",3,"true","6151ff3f670b63b35291cabc",29,NA,"true",0,"",TRUE,29
"image-keyboard-response",87,278886,"0.0-87.0",102,1,"2022-06-11 18:45:33","6bdea4aee053250f8215222e21306ad9","6151ff3f670b63b35291cabc",0,"prolific","oaAlpha","","","","","",4060,"trial30.jpg","j",2,"false","6151ff3f670b63b35291cabc",30,NA,"true",0,"",FALSE,30
"image-keyboard-response",88,282463,"0.0-88.0",102,1,"2022-06-11 18:45:33","6bdea4aee053250f8215222e21306ad9","6151ff3f670b63b35291cabc",0,"prolific","oaAlpha","","","","","",3067,"trial31.jpg","h",2,"true","6151ff3f670b63b35291cabc",31,NA,"true",0,"",TRUE,31
"image-keyboard-response",89,288325,"0.0-89.0",102,1,"2022-06-11 18:45:33","6bdea4aee053250f8215222e21306ad9","6151ff3f670b63b35291cabc",0,"prolific","oaAlpha","","","","","",5353,"trial32.jpg","h",2,"true","6151ff3f670b63b35291cabc",32,NA,"true",0,"",TRUE,32
"image-keyboard-response",90,293117,"0.0-90.0",102,1,"2022-06-11 18:45:33","6bdea4aee053250f8215222e21306ad9","6151ff3f670b63b35291cabc",0,"prolific","oaAlpha","","","","","",4283,"trial33.jpg","g",1,"true","6151ff3f670b63b35291cabc",33,NA,"true",0,"",TRUE,33
"image-keyboard-response",91,307022,"0.0-91.0",102,1,"2022-06-11 18:45:33","6bdea4aee053250f8215222e21306ad9","6151ff3f670b63b35291cabc",0,"prolific","oaAlpha","","","","","",13392,"trial34.jpg","j",3,"true","6151ff3f670b63b35291cabc",34,NA,"true",0,"",TRUE,34
"image-keyboard-response",92,310268,"0.0-92.0",102,1,"2022-06-11 18:45:33","6bdea4aee053250f8215222e21306ad9","6151ff3f670b63b35291cabc",0,"prolific","oaAlpha","","","","","",2736,"trial35.jpg","h",2,"true","6151ff3f670b63b35291cabc",35,NA,"true",0,"",TRUE,35
"image-keyboard-response",93,319064,"0.0-93.0",102,1,"2022-06-11 18:45:33","6bdea4aee053250f8215222e21306ad9","6151ff3f670b63b35291cabc",0,"prolific","oaAlpha","","","","","",8281,"trial36.jpg","j",3,"true","6151ff3f670b63b35291cabc",36,NA,"true",0,"",TRUE,36
"image-keyboard-response",97,345245,"0.0-97.0",102,1,"2022-06-11 18:45:33","6bdea4aee053250f8215222e21306ad9","6151ff3f670b63b35291cabc",0,"prolific","oaAlpha","","","","","",3714,"trial37.jpg","g",1,"true","6151ff3f670b63b35291cabc",37,NA,"true",0,"",TRUE,37
"image-keyboard-response",98,350711,"0.0-98.0",102,1,"2022-06-11 18:45:33","6bdea4aee053250f8215222e21306ad9","6151ff3f670b63b35291cabc",0,"prolific","oaAlpha","","","","","",4952,"trial38.jpg","h",2,"true","6151ff3f670b63b35291cabc",38,NA,"true",0,"",TRUE,38
"image-keyboard-response",99,355347,"0.0-99.0",102,1,"2022-06-11 18:45:33","6bdea4aee053250f8215222e21306ad9","6151ff3f670b63b35291cabc",0,"prolific","oaAlpha","","","","","",4125,"trial39.jpg","g",1,"true","6151ff3f670b63b35291cabc",39,NA,"true",0,"",TRUE,39
"image-keyboard-response",100,359465,"0.0-100.0",102,1,"2022-06-11 18:45:33","6bdea4aee053250f8215222e21306ad9","6151ff3f670b63b35291cabc",0,"prolific","oaAlpha","","","","","",3607,"trial40.jpg","j",3,"true","6151ff3f670b63b35291cabc",40,NA,"true",0,"",TRUE,40
"image-keyboard-response",101,364299,"0.0-101.0",102,1,"2022-06-11 18:45:33","6bdea4aee053250f8215222e21306ad9","6151ff3f670b63b35291cabc",0,"prolific","oaAlpha","","","","","",4323,"trial41.jpg","j",3,"true","6151ff3f670b63b35291cabc",41,NA,"true",0,"",TRUE,41
"image-keyboard-response",102,368894,"0.0-102.0",102,1,"2022-06-11 18:45:33","6bdea4aee053250f8215222e21306ad9","6151ff3f670b63b35291cabc",0,"prolific","oaAlpha","","","","","",4081,"trial42.jpg","g",1,"true","6151ff3f670b63b35291cabc",42,NA,"true",0,"",TRUE,42
"image-keyboard-response",103,372617,"0.0-103.0",102,1,"2022-06-11 18:45:33","6bdea4aee053250f8215222e21306ad9","6151ff3f670b63b35291cabc",0,"prolific","oaAlpha","","","","","",3212,"trial43.jpg","j",3,"true","6151ff3f670b63b35291cabc",43,NA,"true",0,"",TRUE,43
"image-keyboard-response",104,376262,"0.0-104.0",102,1,"2022-06-11 18:45:33","6bdea4aee053250f8215222e21306ad9","6151ff3f670b63b35291cabc",0,"prolific","oaAlpha","","","","","",3134,"trial44.jpg","j",3,"true","6151ff3f670b63b35291cabc",44,NA,"true",0,"",TRUE,44
"image-keyboard-response",106,384580,"0.0-106.0",102,1,"2022-06-11 18:45:33","6bdea4aee053250f8215222e21306ad9","6151ff3f670b63b35291cabc",0,"prolific","oaAlpha","","","","","",4916,"trial45.jpg","g",3,"false","6151ff3f670b63b35291cabc",45,NA,"true",0,"",FALSE,45
"image-keyboard-response",107,388620,"0.0-107.0",102,1,"2022-06-11 18:45:33","6bdea4aee053250f8215222e21306ad9","6151ff3f670b63b35291cabc",0,"prolific","oaAlpha","","","","","",3530,"trial46.jpg","h",1,"false","6151ff3f670b63b35291cabc",46,NA,"true",0,"",FALSE,46
"image-keyboard-response",108,393098,"0.0-108.0",102,1,"2022-06-11 18:45:33","6bdea4aee053250f8215222e21306ad9","6151ff3f670b63b35291cabc",0,"prolific","oaAlpha","","","","","",3964,"trial47.jpg","g",2,"false","6151ff3f670b63b35291cabc",47,NA,"true",0,"",FALSE,47
"image-keyboard-response",109,395276,"0.0-109.0",102,1,"2022-06-11 18:45:33","6bdea4aee053250f8215222e21306ad9","6151ff3f670b63b35291cabc",0,"prolific","oaAlpha","","","","","",1666,"trial48.jpg","h",2,"true","6151ff3f670b63b35291cabc",48,NA,"true",0,"",TRUE,48
"image-keyboard-response",110,399276,"0.0-110.0",102,1,"2022-06-11 18:45:33","6bdea4aee053250f8215222e21306ad9","6151ff3f670b63b35291cabc",0,"prolific","oaAlpha","","","","","",3488,"trial49.jpg","h",2,"true","6151ff3f670b63b35291cabc",49,NA,"true",0,"",TRUE,49
"image-keyboard-response",111,401455,"0.0-111.0",102,1,"2022-06-11 18:45:33","6bdea4aee053250f8215222e21306ad9","6151ff3f670b63b35291cabc",0,"prolific","oaAlpha","","","","","",1669,"trial50.jpg","j",1,"false","6151ff3f670b63b35291cabc",50,NA,"true",0,"",FALSE,50
"image-keyboard-response",112,403477,"0.0-112.0",102,1,"2022-06-11 18:45:33","6bdea4aee053250f8215222e21306ad9","6151ff3f670b63b35291cabc",0,"prolific","oaAlpha","","","","","",1509,"trial51.jpg","g",2,"false","6151ff3f670b63b35291cabc",51,NA,"true",0,"",FALSE,51
"image-keyboard-response",113,408388,"0.0-113.0",102,1,"2022-06-11 18:45:33","6bdea4aee053250f8215222e21306ad9","6151ff3f670b63b35291cabc",0,"prolific","oaAlpha","","","","","",4399,"trial52.jpg","g",1,"true","6151ff3f670b63b35291cabc",52,NA,"true",0,"",TRUE,52
"image-keyboard-response",114,411320,"0.0-114.0",102,1,"2022-06-11 18:45:33","6bdea4aee053250f8215222e21306ad9","6151ff3f670b63b35291cabc",0,"prolific","oaAlpha","","","","","",2420,"trial53.jpg","j",3,"true","6151ff3f670b63b35291cabc",53,NA,"true",0,"",TRUE,53
"image-keyboard-response",115,414331,"0.0-115.0",102,1,"2022-06-11 18:45:33","6bdea4aee053250f8215222e21306ad9","6151ff3f670b63b35291cabc",0,"prolific","oaAlpha","","","","","",2500,"trial54.jpg","j",2,"false","6151ff3f670b63b35291cabc",54,NA,"true",0,"",FALSE,54
"image-keyboard-response",116,416152,"0.0-116.0",102,1,"2022-06-11 18:45:33","6bdea4aee053250f8215222e21306ad9","6151ff3f670b63b35291cabc",0,"prolific","oaAlpha","","","","","",1309,"trial55.jpg","h",2,"true","6151ff3f670b63b35291cabc",55,NA,"true",0,"",TRUE,55
"image-keyboard-response",117,418609,"0.0-117.0",102,1,"2022-06-11 18:45:33","6bdea4aee053250f8215222e21306ad9","6151ff3f670b63b35291cabc",0,"prolific","oaAlpha","","","","","",1950,"trial56.jpg","h",2,"true","6151ff3f670b63b35291cabc",56,NA,"true",0,"",TRUE,56
"image-keyboard-response",118,424315,"0.0-118.0",102,1,"2022-06-11 18:45:33","6bdea4aee053250f8215222e21306ad9","6151ff3f670b63b35291cabc",0,"prolific","oaAlpha","","","","","",5178,"trial57.jpg","g",1,"true","6151ff3f670b63b35291cabc",57,NA,"true",0,"",TRUE,57
"image-keyboard-response",119,427960,"0.0-119.0",102,1,"2022-06-11 18:45:33","6bdea4aee053250f8215222e21306ad9","6151ff3f670b63b35291cabc",0,"prolific","oaAlpha","","","","","",3134,"trial58.jpg","j",3,"true","6151ff3f670b63b35291cabc",58,NA,"true",0,"",TRUE,58
"image-keyboard-response",120,432434,"0.0-120.0",102,1,"2022-06-11 18:45:33","6bdea4aee053250f8215222e21306ad9","6151ff3f670b63b35291cabc",0,"prolific","oaAlpha","","","","","",3951,"trial59.jpg","g",3,"false","6151ff3f670b63b35291cabc",59,NA,"true",0,"",FALSE,59
"image-keyboard-response",121,435444,"0.0-121.0",102,1,"2022-06-11 18:45:33","6bdea4aee053250f8215222e21306ad9","6151ff3f670b63b35291cabc",0,"prolific","oaAlpha","","","","","",2499,"trial60.jpg","g",2,"false","6151ff3f670b63b35291cabc",60,NA,"true",0,"",FALSE,60
"image-keyboard-response",122,438534,"0.0-122.0",102,1,"2022-06-11 18:45:33","6bdea4aee053250f8215222e21306ad9","6151ff3f670b63b35291cabc",0,"prolific","oaAlpha","","","","","",2577,"trial61.jpg","h",2,"true","6151ff3f670b63b35291cabc",61,NA,"true",0,"",TRUE,61
"image-keyboard-response",123,445358,"0.0-123.0",102,1,"2022-06-11 18:45:33","6bdea4aee053250f8215222e21306ad9","6151ff3f670b63b35291cabc",0,"prolific","oaAlpha","","","","","",6311,"trial62.jpg","h",1,"false","6151ff3f670b63b35291cabc",62,NA,"true",0,"",FALSE,62
"image-keyboard-response",124,448767,"0.0-124.0",102,1,"2022-06-11 18:45:33","6bdea4aee053250f8215222e21306ad9","6151ff3f670b63b35291cabc",0,"prolific","oaAlpha","","","","","",2898,"trial63.jpg","j",1,"false","6151ff3f670b63b35291cabc",63,NA,"true",0,"",FALSE,63
"image-keyboard-response",125,453044,"0.0-125.0",102,1,"2022-06-11 18:45:33","6bdea4aee053250f8215222e21306ad9","6151ff3f670b63b35291cabc",0,"prolific","oaAlpha","","","","","",3763,"trial64.jpg","h",2,"true","6151ff3f670b63b35291cabc",64,NA,"true",0,"",TRUE,64
"image-keyboard-response",126,456213,"0.0-126.0",102,1,"2022-06-11 18:45:33","6bdea4aee053250f8215222e21306ad9","6151ff3f670b63b35291cabc",0,"prolific","oaAlpha","","","","","",2658,"trial65.jpg","g",1,"true","6151ff3f670b63b35291cabc",65,NA,"true",0,"",TRUE,65
"image-keyboard-response",127,460373,"0.0-127.0",102,1,"2022-06-11 18:45:33","6bdea4aee053250f8215222e21306ad9","6151ff3f670b63b35291cabc",0,"prolific","oaAlpha","","","","","",3646,"trial66.jpg","g",1,"true","6151ff3f670b63b35291cabc",66,NA,"true",0,"",TRUE,66
"image-keyboard-response",128,463185,"0.0-128.0",102,1,"2022-06-11 18:45:33","6bdea4aee053250f8215222e21306ad9","6151ff3f670b63b35291cabc",0,"prolific","oaAlpha","","","","","",2298,"trial67.jpg","j",3,"true","6151ff3f670b63b35291cabc",67,NA,"true",0,"",TRUE,67
"image-keyboard-response",129,468967,"0.0-129.0",102,1,"2022-06-11 18:45:33","6bdea4aee053250f8215222e21306ad9","6151ff3f670b63b35291cabc",0,"prolific","oaAlpha","","","","","",5268,"trial68.jpg","h",1,"false","6151ff3f670b63b35291cabc",68,NA,"true",0,"",FALSE,68
"image-keyboard-response",130,471029,"0.0-130.0",102,1,"2022-06-11 18:45:33","6bdea4aee053250f8215222e21306ad9","6151ff3f670b63b35291cabc",0,"prolific","oaAlpha","","","","","",1550,"trial69.jpg","j",3,"true","6151ff3f670b63b35291cabc",69,NA,"true",0,"",TRUE,69
"image-keyboard-response",131,475820,"0.0-131.0",102,1,"2022-06-11 18:45:33","6bdea4aee053250f8215222e21306ad9","6151ff3f670b63b35291cabc",0,"prolific","oaAlpha","","","","","",4277,"trial70.jpg","h",3,"false","6151ff3f670b63b35291cabc",70,NA,"true",0,"",FALSE,70
"image-keyboard-response",132,478753,"0.0-132.0",102,1,"2022-06-11 18:45:33","6bdea4aee053250f8215222e21306ad9","6151ff3f670b63b35291cabc",0,"prolific","oaAlpha","","","","","",2419,"trial71.jpg","h",3,"false","6151ff3f670b63b35291cabc",71,NA,"true",0,"",FALSE,71
"image-keyboard-response",133,483308,"0.0-133.0",102,1,"2022-06-11 18:45:33","6bdea4aee053250f8215222e21306ad9","6151ff3f670b63b35291cabc",0,"prolific","oaAlpha","","","","","",4042,"trial72.jpg","h",2,"true","6151ff3f670b63b35291cabc",72,NA,"true",0,"",TRUE,72
"image-keyboard-response",17,48919,"0.0-17.0",16,1,"2022-05-29 01:06:31","75b73886ef0cdcad6d9187958adaa33b","5aaa59e2f5c89a0001e25150",0,"prolific","oaAlpha","","","","","",2902,"trial1.jpg","h",2,"true","5aaa59e2f5c89a0001e25150",1,NA,"true",NA,"",TRUE,1
"image-keyboard-response",19,53843,"0.0-19.0",16,1,"2022-05-29 01:06:31","75b73886ef0cdcad6d9187958adaa33b","5aaa59e2f5c89a0001e25150",0,"prolific","oaAlpha","","","","","",3418,"trial2.jpg","g",1,"true","5aaa59e2f5c89a0001e25150",2,NA,"true",NA,"",TRUE,2
"image-keyboard-response",21,58253,"0.0-21.0",16,1,"2022-05-29 01:06:31","75b73886ef0cdcad6d9187958adaa33b","5aaa59e2f5c89a0001e25150",0,"prolific","oaAlpha","","","","","",2905,"trial3.jpg","j",3,"true","5aaa59e2f5c89a0001e25150",3,NA,"true",NA,"",TRUE,3
"image-keyboard-response",27,73449,"0.0-27.0",16,1,"2022-05-29 01:06:31","75b73886ef0cdcad6d9187958adaa33b","5aaa59e2f5c89a0001e25150",0,"prolific","oaAlpha","","","","","",2628,"trial4.jpg","h",2,"true","5aaa59e2f5c89a0001e25150",4,NA,"true",NA,"",TRUE,4
"image-keyboard-response",29,78842,"0.0-29.0",16,1,"2022-05-29 01:06:31","75b73886ef0cdcad6d9187958adaa33b","5aaa59e2f5c89a0001e25150",0,"prolific","oaAlpha","","","","","",3887,"trial5.jpg","j",3,"true","5aaa59e2f5c89a0001e25150",5,NA,"true",NA,"",TRUE,5
"image-keyboard-response",31,83163,"0.0-31.0",16,1,"2022-05-29 01:06:31","75b73886ef0cdcad6d9187958adaa33b","5aaa59e2f5c89a0001e25150",0,"prolific","oaAlpha","","","","","",2815,"trial6.jpg","h",2,"true","5aaa59e2f5c89a0001e25150",6,NA,"true",NA,"",TRUE,6
"image-keyboard-response",37,98487,"0.0-37.0",16,1,"2022-05-29 01:06:31","75b73886ef0cdcad6d9187958adaa33b","5aaa59e2f5c89a0001e25150",0,"prolific","oaAlpha","","","","","",3111,"trial7.jpg","j",3,"true","5aaa59e2f5c89a0001e25150",7,NA,"true",NA,"",TRUE,7
"image-keyboard-response",39,102481,"0.0-39.0",16,1,"2022-05-29 01:06:31","75b73886ef0cdcad6d9187958adaa33b","5aaa59e2f5c89a0001e25150",0,"prolific","oaAlpha","","","","","",2487,"trial8.jpg","g",1,"true","5aaa59e2f5c89a0001e25150",8,NA,"true",NA,"",TRUE,8
"image-keyboard-response",41,106403,"0.0-41.0",16,1,"2022-05-29 01:06:31","75b73886ef0cdcad6d9187958adaa33b","5aaa59e2f5c89a0001e25150",0,"prolific","oaAlpha","","","","","",2414,"trial9.jpg","j",3,"true","5aaa59e2f5c89a0001e25150",9,NA,"true",NA,"",TRUE,9
"image-keyboard-response",47,120592,"0.0-47.0",16,1,"2022-05-29 01:06:31","75b73886ef0cdcad6d9187958adaa33b","5aaa59e2f5c89a0001e25150",0,"prolific","oaAlpha","","","","","",2209,"trial10.jpg","j",3,"true","5aaa59e2f5c89a0001e25150",10,NA,"true",NA,"",TRUE,10
"image-keyboard-response",49,124120,"0.0-49.0",16,1,"2022-05-29 01:06:31","75b73886ef0cdcad6d9187958adaa33b","5aaa59e2f5c89a0001e25150",0,"prolific","oaAlpha","","","","","",2022,"trial11.jpg","g",1,"true","5aaa59e2f5c89a0001e25150",11,NA,"true",NA,"",TRUE,11
"image-keyboard-response",51,127750,"0.0-51.0",16,1,"2022-05-29 01:06:31","75b73886ef0cdcad6d9187958adaa33b","5aaa59e2f5c89a0001e25150",0,"prolific","oaAlpha","","","","","",2117,"trial12.jpg","j",3,"true","5aaa59e2f5c89a0001e25150",12,NA,"true",NA,"",TRUE,12
"image-keyboard-response",57,142367,"0.0-57.0",16,1,"2022-05-29 01:06:31","75b73886ef0cdcad6d9187958adaa33b","5aaa59e2f5c89a0001e25150",0,"prolific","oaAlpha","","","","","",2274,"trial13.jpg","g",1,"true","5aaa59e2f5c89a0001e25150",13,NA,"true",NA,"",TRUE,13
"image-keyboard-response",59,146275,"0.0-59.0",16,1,"2022-05-29 01:06:31","75b73886ef0cdcad6d9187958adaa33b","5aaa59e2f5c89a0001e25150",0,"prolific","oaAlpha","","","","","",2400,"trial14.jpg","h",2,"true","5aaa59e2f5c89a0001e25150",14,NA,"true",NA,"",TRUE,14
"image-keyboard-response",61,149797,"0.0-61.0",16,1,"2022-05-29 01:06:31","75b73886ef0cdcad6d9187958adaa33b","5aaa59e2f5c89a0001e25150",0,"prolific","oaAlpha","","","","","",2015,"trial15.jpg","g",1,"true","5aaa59e2f5c89a0001e25150",15,NA,"true",NA,"",TRUE,15
"image-keyboard-response",67,163627,"0.0-67.0",16,1,"2022-05-29 01:06:31","75b73886ef0cdcad6d9187958adaa33b","5aaa59e2f5c89a0001e25150",0,"prolific","oaAlpha","","","","","",1755,"trial16.jpg","h",2,"true","5aaa59e2f5c89a0001e25150",16,NA,"true",NA,"",TRUE,16
"image-keyboard-response",69,167257,"0.0-69.0",16,1,"2022-05-29 01:06:31","75b73886ef0cdcad6d9187958adaa33b","5aaa59e2f5c89a0001e25150",0,"prolific","oaAlpha","","","","","",2121,"trial17.jpg","h",2,"true","5aaa59e2f5c89a0001e25150",17,NA,"true",NA,"",TRUE,17
"image-keyboard-response",71,171100,"0.0-71.0",16,1,"2022-05-29 01:06:31","75b73886ef0cdcad6d9187958adaa33b","5aaa59e2f5c89a0001e25150",0,"prolific","oaAlpha","","","","","",2334,"trial18.jpg","g",1,"true","5aaa59e2f5c89a0001e25150",18,NA,"true",NA,"",TRUE,18
"image-keyboard-response",76,211136,"0.0-76.0",16,1,"2022-05-29 01:06:31","75b73886ef0cdcad6d9187958adaa33b","5aaa59e2f5c89a0001e25150",0,"prolific","oaAlpha","","","","","",5702,"trial19.jpg","h",2,"true","5aaa59e2f5c89a0001e25150",19,NA,"true",NA,"",TRUE,19
"image-keyboard-response",77,215874,"0.0-77.0",16,1,"2022-05-29 01:06:31","75b73886ef0cdcad6d9187958adaa33b","5aaa59e2f5c89a0001e25150",0,"prolific","oaAlpha","","","","","",4233,"trial20.jpg","g",1,"true","5aaa59e2f5c89a0001e25150",20,NA,"true",NA,"",TRUE,20
"image-keyboard-response",78,218700,"0.0-78.0",16,1,"2022-05-29 01:06:31","75b73886ef0cdcad6d9187958adaa33b","5aaa59e2f5c89a0001e25150",0,"prolific","oaAlpha","","","","","",2320,"trial21.jpg","g",1,"true","5aaa59e2f5c89a0001e25150",21,NA,"true",NA,"",TRUE,21
"image-keyboard-response",79,221868,"0.0-79.0",16,1,"2022-05-29 01:06:31","75b73886ef0cdcad6d9187958adaa33b","5aaa59e2f5c89a0001e25150",0,"prolific","oaAlpha","","","","","",2662,"trial22.jpg","j",3,"true","5aaa59e2f5c89a0001e25150",22,NA,"true",NA,"",TRUE,22
"image-keyboard-response",80,224844,"0.0-80.0",16,1,"2022-05-29 01:06:31","75b73886ef0cdcad6d9187958adaa33b","5aaa59e2f5c89a0001e25150",0,"prolific","oaAlpha","","","","","",2471,"trial23.jpg","g",1,"true","5aaa59e2f5c89a0001e25150",23,NA,"true",NA,"",TRUE,23
"image-keyboard-response",81,231937,"0.0-81.0",16,1,"2022-05-29 01:06:31","75b73886ef0cdcad6d9187958adaa33b","5aaa59e2f5c89a0001e25150",0,"prolific","oaAlpha","","","","","",6588,"trial24.jpg","h",3,"false","5aaa59e2f5c89a0001e25150",24,NA,"true",NA,"",FALSE,24
"image-keyboard-response",82,239664,"0.0-82.0",16,1,"2022-05-29 01:06:31","75b73886ef0cdcad6d9187958adaa33b","5aaa59e2f5c89a0001e25150",0,"prolific","oaAlpha","","","","","",7222,"trial25.jpg","g",1,"true","5aaa59e2f5c89a0001e25150",25,NA,"true",NA,"",TRUE,25
"image-keyboard-response",83,244387,"0.0-83.0",16,1,"2022-05-29 01:06:31","75b73886ef0cdcad6d9187958adaa33b","5aaa59e2f5c89a0001e25150",0,"prolific","oaAlpha","","","","","",4217,"trial26.jpg","g",1,"true","5aaa59e2f5c89a0001e25150",26,NA,"true",NA,"",TRUE,26
"image-keyboard-response",84,247372,"0.0-84.0",16,1,"2022-05-29 01:06:31","75b73886ef0cdcad6d9187958adaa33b","5aaa59e2f5c89a0001e25150",0,"prolific","oaAlpha","","","","","",2479,"trial27.jpg","h",3,"false","5aaa59e2f5c89a0001e25150",27,NA,"true",NA,"",FALSE,27
"image-keyboard-response",85,251596,"0.0-85.0",16,1,"2022-05-29 01:06:31","75b73886ef0cdcad6d9187958adaa33b","5aaa59e2f5c89a0001e25150",0,"prolific","oaAlpha","","","","","",3718,"trial28.jpg","h",2,"true","5aaa59e2f5c89a0001e25150",28,NA,"true",NA,"",TRUE,28
"image-keyboard-response",86,259950,"0.0-86.0",16,1,"2022-05-29 01:06:31","75b73886ef0cdcad6d9187958adaa33b","5aaa59e2f5c89a0001e25150",0,"prolific","oaAlpha","","","","","",7849,"trial29.jpg","h",3,"false","5aaa59e2f5c89a0001e25150",29,NA,"true",NA,"",FALSE,29
"image-keyboard-response",87,263733,"0.0-87.0",16,1,"2022-05-29 01:06:31","75b73886ef0cdcad6d9187958adaa33b","5aaa59e2f5c89a0001e25150",0,"prolific","oaAlpha","","","","","",3278,"trial30.jpg","h",2,"true","5aaa59e2f5c89a0001e25150",30,NA,"true",NA,"",TRUE,30
"image-keyboard-response",88,268987,"0.0-88.0",16,1,"2022-05-29 01:06:31","75b73886ef0cdcad6d9187958adaa33b","5aaa59e2f5c89a0001e25150",0,"prolific","oaAlpha","","","","","",4749,"trial31.jpg","h",2,"true","5aaa59e2f5c89a0001e25150",31,NA,"true",NA,"",TRUE,31
"image-keyboard-response",89,274821,"0.0-89.0",16,1,"2022-05-29 01:06:31","75b73886ef0cdcad6d9187958adaa33b","5aaa59e2f5c89a0001e25150",0,"prolific","oaAlpha","","","","","",5329,"trial32.jpg","j",2,"false","5aaa59e2f5c89a0001e25150",32,NA,"true",NA,"",FALSE,32
"image-keyboard-response",90,290114,"0.0-90.0",16,1,"2022-05-29 01:06:31","75b73886ef0cdcad6d9187958adaa33b","5aaa59e2f5c89a0001e25150",0,"prolific","oaAlpha","","","","","",14788,"trial33.jpg","j",1,"false","5aaa59e2f5c89a0001e25150",33,NA,"true",NA,"",FALSE,33
"image-keyboard-response",91,293740,"0.0-91.0",16,1,"2022-05-29 01:06:31","75b73886ef0cdcad6d9187958adaa33b","5aaa59e2f5c89a0001e25150",0,"prolific","oaAlpha","","","","","",3120,"trial34.jpg","h",3,"false","5aaa59e2f5c89a0001e25150",34,NA,"true",NA,"",FALSE,34
"image-keyboard-response",92,299738,"0.0-92.0",16,1,"2022-05-29 01:06:31","75b73886ef0cdcad6d9187958adaa33b","5aaa59e2f5c89a0001e25150",0,"prolific","oaAlpha","","","","","",5492,"trial35.jpg","g",2,"false","5aaa59e2f5c89a0001e25150",35,NA,"true",NA,"",FALSE,35
"image-keyboard-response",93,309430,"0.0-93.0",16,1,"2022-05-29 01:06:31","75b73886ef0cdcad6d9187958adaa33b","5aaa59e2f5c89a0001e25150",0,"prolific","oaAlpha","","","","","",9186,"trial36.jpg","j",3,"true","5aaa59e2f5c89a0001e25150",36,NA,"true",NA,"",TRUE,36
"image-keyboard-response",97,388443,"0.0-97.0",16,1,"2022-05-29 01:06:31","75b73886ef0cdcad6d9187958adaa33b","5aaa59e2f5c89a0001e25150",0,"prolific","oaAlpha","","","","","",4108,"trial37.jpg","g",1,"true","5aaa59e2f5c89a0001e25150",37,NA,"true",NA,"",TRUE,37
"image-keyboard-response",98,393210,"0.0-98.0",16,1,"2022-05-29 01:06:31","75b73886ef0cdcad6d9187958adaa33b","5aaa59e2f5c89a0001e25150",0,"prolific","oaAlpha","","","","","",4261,"trial38.jpg","h",2,"true","5aaa59e2f5c89a0001e25150",38,NA,"true",NA,"",TRUE,38
"image-keyboard-response",99,396084,"0.0-99.0",16,1,"2022-05-29 01:06:31","75b73886ef0cdcad6d9187958adaa33b","5aaa59e2f5c89a0001e25150",0,"prolific","oaAlpha","","","","","",2368,"trial39.jpg","j",1,"false","5aaa59e2f5c89a0001e25150",39,NA,"true",NA,"",FALSE,39
"image-keyboard-response",100,399736,"0.0-100.0",16,1,"2022-05-29 01:06:31","75b73886ef0cdcad6d9187958adaa33b","5aaa59e2f5c89a0001e25150",0,"prolific","oaAlpha","","","","","",3147,"trial40.jpg","j",3,"true","5aaa59e2f5c89a0001e25150",40,NA,"true",NA,"",TRUE,40
"image-keyboard-response",101,404459,"0.0-101.0",16,1,"2022-05-29 01:06:31","75b73886ef0cdcad6d9187958adaa33b","5aaa59e2f5c89a0001e25150",0,"prolific","oaAlpha","","","","","",4216,"trial41.jpg","j",3,"true","5aaa59e2f5c89a0001e25150",41,NA,"true",NA,"",TRUE,41
"image-keyboard-response",102,407580,"0.0-102.0",16,1,"2022-05-29 01:06:31","75b73886ef0cdcad6d9187958adaa33b","5aaa59e2f5c89a0001e25150",0,"prolific","oaAlpha","","","","","",2615,"trial42.jpg","g",1,"true","5aaa59e2f5c89a0001e25150",42,NA,"true",NA,"",TRUE,42
"image-keyboard-response",103,410961,"0.0-103.0",16,1,"2022-05-29 01:06:31","75b73886ef0cdcad6d9187958adaa33b","5aaa59e2f5c89a0001e25150",0,"prolific","oaAlpha","","","","","",2875,"trial43.jpg","j",3,"true","5aaa59e2f5c89a0001e25150",43,NA,"true",NA,"",TRUE,43
"image-keyboard-response",104,414872,"0.0-104.0",16,1,"2022-05-29 01:06:31","75b73886ef0cdcad6d9187958adaa33b","5aaa59e2f5c89a0001e25150",0,"prolific","oaAlpha","","","","","",3404,"trial44.jpg","j",3,"true","5aaa59e2f5c89a0001e25150",44,NA,"true",NA,"",TRUE,44
"image-keyboard-response",106,469752,"0.0-106.0",16,1,"2022-05-29 01:06:31","75b73886ef0cdcad6d9187958adaa33b","5aaa59e2f5c89a0001e25150",0,"prolific","oaAlpha","","","","","",7520,"trial45.jpg","j",3,"true","5aaa59e2f5c89a0001e25150",45,NA,"true",NA,"",TRUE,45
"image-keyboard-response",107,473766,"0.0-107.0",16,1,"2022-05-29 01:06:31","75b73886ef0cdcad6d9187958adaa33b","5aaa59e2f5c89a0001e25150",0,"prolific","oaAlpha","","","","","",3507,"trial46.jpg","g",1,"true","5aaa59e2f5c89a0001e25150",46,NA,"true",NA,"",TRUE,46
"image-keyboard-response",108,477257,"0.0-108.0",16,1,"2022-05-29 01:06:31","75b73886ef0cdcad6d9187958adaa33b","5aaa59e2f5c89a0001e25150",0,"prolific","oaAlpha","","","","","",2985,"trial47.jpg","h",2,"true","5aaa59e2f5c89a0001e25150",47,NA,"true",NA,"",TRUE,47
"image-keyboard-response",109,479531,"0.0-109.0",16,1,"2022-05-29 01:06:31","75b73886ef0cdcad6d9187958adaa33b","5aaa59e2f5c89a0001e25150",0,"prolific","oaAlpha","","","","","",1767,"trial48.jpg","h",2,"true","5aaa59e2f5c89a0001e25150",48,NA,"true",NA,"",TRUE,48
"image-keyboard-response",110,482359,"0.0-110.0",16,1,"2022-05-29 01:06:31","75b73886ef0cdcad6d9187958adaa33b","5aaa59e2f5c89a0001e25150",0,"prolific","oaAlpha","","","","","",2321,"trial49.jpg","h",2,"true","5aaa59e2f5c89a0001e25150",49,NA,"true",NA,"",TRUE,49
"image-keyboard-response",111,485181,"0.0-111.0",16,1,"2022-05-29 01:06:31","75b73886ef0cdcad6d9187958adaa33b","5aaa59e2f5c89a0001e25150",0,"prolific","oaAlpha","","","","","",2317,"trial50.jpg","j",1,"false","5aaa59e2f5c89a0001e25150",50,NA,"true",NA,"",FALSE,50
"image-keyboard-response",112,488147,"0.0-112.0",16,1,"2022-05-29 01:06:31","75b73886ef0cdcad6d9187958adaa33b","5aaa59e2f5c89a0001e25150",0,"prolific","oaAlpha","","","","","",2459,"trial51.jpg","h",2,"true","5aaa59e2f5c89a0001e25150",51,NA,"true",NA,"",TRUE,51
"image-keyboard-response",113,493609,"0.0-113.0",16,1,"2022-05-29 01:06:31","75b73886ef0cdcad6d9187958adaa33b","5aaa59e2f5c89a0001e25150",0,"prolific","oaAlpha","","","","","",4956,"trial52.jpg","j",1,"false","5aaa59e2f5c89a0001e25150",52,NA,"true",NA,"",FALSE,52
"image-keyboard-response",114,496867,"0.0-114.0",16,1,"2022-05-29 01:06:31","75b73886ef0cdcad6d9187958adaa33b","5aaa59e2f5c89a0001e25150",0,"prolific","oaAlpha","","","","","",2738,"trial53.jpg","j",3,"true","5aaa59e2f5c89a0001e25150",53,NA,"true",NA,"",TRUE,53
"image-keyboard-response",115,501507,"0.0-115.0",16,1,"2022-05-29 01:06:31","75b73886ef0cdcad6d9187958adaa33b","5aaa59e2f5c89a0001e25150",0,"prolific","oaAlpha","","","","","",4133,"trial54.jpg","h",2,"true","5aaa59e2f5c89a0001e25150",54,NA,"true",NA,"",TRUE,54
"image-keyboard-response",116,505369,"0.0-116.0",16,1,"2022-05-29 01:06:31","75b73886ef0cdcad6d9187958adaa33b","5aaa59e2f5c89a0001e25150",0,"prolific","oaAlpha","","","","","",3355,"trial55.jpg","h",2,"true","5aaa59e2f5c89a0001e25150",55,NA,"true",NA,"",TRUE,55
"image-keyboard-response",117,509031,"0.0-117.0",16,1,"2022-05-29 01:06:31","75b73886ef0cdcad6d9187958adaa33b","5aaa59e2f5c89a0001e25150",0,"prolific","oaAlpha","","","","","",3156,"trial56.jpg","h",2,"true","5aaa59e2f5c89a0001e25150",56,NA,"true",NA,"",TRUE,56
"image-keyboard-response",118,512864,"0.0-118.0",16,1,"2022-05-29 01:06:31","75b73886ef0cdcad6d9187958adaa33b","5aaa59e2f5c89a0001e25150",0,"prolific","oaAlpha","","","","","",3326,"trial57.jpg","g",1,"true","5aaa59e2f5c89a0001e25150",57,NA,"true",NA,"",TRUE,57
"image-keyboard-response",119,515661,"0.0-119.0",16,1,"2022-05-29 01:06:31","75b73886ef0cdcad6d9187958adaa33b","5aaa59e2f5c89a0001e25150",0,"prolific","oaAlpha","","","","","",2290,"trial58.jpg","j",3,"true","5aaa59e2f5c89a0001e25150",58,NA,"true",NA,"",TRUE,58
"image-keyboard-response",120,520971,"0.0-120.0",16,1,"2022-05-29 01:06:31","75b73886ef0cdcad6d9187958adaa33b","5aaa59e2f5c89a0001e25150",0,"prolific","oaAlpha","","","","","",4804,"trial59.jpg","j",3,"true","5aaa59e2f5c89a0001e25150",59,NA,"true",NA,"",TRUE,59
"image-keyboard-response",121,524341,"0.0-121.0",16,1,"2022-05-29 01:06:31","75b73886ef0cdcad6d9187958adaa33b","5aaa59e2f5c89a0001e25150",0,"prolific","oaAlpha","","","","","",2862,"trial60.jpg","h",2,"true","5aaa59e2f5c89a0001e25150",60,NA,"true",NA,"",TRUE,60
"image-keyboard-response",122,526527,"0.0-122.0",16,1,"2022-05-29 01:06:31","75b73886ef0cdcad6d9187958adaa33b","5aaa59e2f5c89a0001e25150",0,"prolific","oaAlpha","","","","","",1679,"trial61.jpg","h",2,"true","5aaa59e2f5c89a0001e25150",61,NA,"true",NA,"",TRUE,61
"image-keyboard-response",123,529396,"0.0-123.0",16,1,"2022-05-29 01:06:31","75b73886ef0cdcad6d9187958adaa33b","5aaa59e2f5c89a0001e25150",0,"prolific","oaAlpha","","","","","",2362,"trial62.jpg","g",1,"true","5aaa59e2f5c89a0001e25150",62,NA,"true",NA,"",TRUE,62
"image-keyboard-response",124,532668,"0.0-124.0",16,1,"2022-05-29 01:06:31","75b73886ef0cdcad6d9187958adaa33b","5aaa59e2f5c89a0001e25150",0,"prolific","oaAlpha","","","","","",2766,"trial63.jpg","g",1,"true","5aaa59e2f5c89a0001e25150",63,NA,"true",NA,"",TRUE,63
"image-keyboard-response",125,535798,"0.0-125.0",16,1,"2022-05-29 01:06:31","75b73886ef0cdcad6d9187958adaa33b","5aaa59e2f5c89a0001e25150",0,"prolific","oaAlpha","","","","","",2622,"trial64.jpg","h",2,"true","5aaa59e2f5c89a0001e25150",64,NA,"true",NA,"",TRUE,64
"image-keyboard-response",126,540299,"0.0-126.0",16,1,"2022-05-29 01:06:31","75b73886ef0cdcad6d9187958adaa33b","5aaa59e2f5c89a0001e25150",0,"prolific","oaAlpha","","","","","",3994,"trial65.jpg","g",1,"true","5aaa59e2f5c89a0001e25150",65,NA,"true",NA,"",TRUE,65
"image-keyboard-response",127,543526,"0.0-127.0",16,1,"2022-05-29 01:06:31","75b73886ef0cdcad6d9187958adaa33b","5aaa59e2f5c89a0001e25150",0,"prolific","oaAlpha","","","","","",2720,"trial66.jpg","g",1,"true","5aaa59e2f5c89a0001e25150",66,NA,"true",NA,"",TRUE,66
"image-keyboard-response",128,546434,"0.0-128.0",16,1,"2022-05-29 01:06:31","75b73886ef0cdcad6d9187958adaa33b","5aaa59e2f5c89a0001e25150",0,"prolific","oaAlpha","","","","","",2401,"trial67.jpg","j",3,"true","5aaa59e2f5c89a0001e25150",67,NA,"true",NA,"",TRUE,67
"image-keyboard-response",129,551799,"0.0-129.0",16,1,"2022-05-29 01:06:31","75b73886ef0cdcad6d9187958adaa33b","5aaa59e2f5c89a0001e25150",0,"prolific","oaAlpha","","","","","",4857,"trial68.jpg","g",1,"true","5aaa59e2f5c89a0001e25150",68,NA,"true",NA,"",TRUE,68
"image-keyboard-response",130,555218,"0.0-130.0",16,1,"2022-05-29 01:06:31","75b73886ef0cdcad6d9187958adaa33b","5aaa59e2f5c89a0001e25150",0,"prolific","oaAlpha","","","","","",2913,"trial69.jpg","j",3,"true","5aaa59e2f5c89a0001e25150",69,NA,"true",NA,"",TRUE,69
"image-keyboard-response",131,570097,"0.0-131.0",16,1,"2022-05-29 01:06:31","75b73886ef0cdcad6d9187958adaa33b","5aaa59e2f5c89a0001e25150",0,"prolific","oaAlpha","","","","","",14372,"trial70.jpg","h",3,"false","5aaa59e2f5c89a0001e25150",70,NA,"true",NA,"",FALSE,70
"image-keyboard-response",132,572975,"0.0-132.0",16,1,"2022-05-29 01:06:31","75b73886ef0cdcad6d9187958adaa33b","5aaa59e2f5c89a0001e25150",0,"prolific","oaAlpha","","","","","",2371,"trial71.jpg","h",3,"false","5aaa59e2f5c89a0001e25150",71,NA,"true",NA,"",FALSE,71
"image-keyboard-response",133,578429,"0.0-133.0",16,1,"2022-05-29 01:06:31","75b73886ef0cdcad6d9187958adaa33b","5aaa59e2f5c89a0001e25150",0,"prolific","oaAlpha","","","","","",4947,"trial72.jpg","j",2,"false","5aaa59e2f5c89a0001e25150",72,NA,"true",NA,"",FALSE,72
"image-keyboard-response",17,49085,"0.0-17.0",18,1,"2022-05-29 16:06:01","75b73886ef0cdcad6d9187958adaa33b","5e2f1e401a4075000d1bee59",0,"prolific","oaAlpha","","","","","",2585,"trial1.jpg","h",2,"true","5e2f1e401a4075000d1bee59",1,NA,"true",NA,"",TRUE,1
"image-keyboard-response",19,52130,"0.0-19.0",18,1,"2022-05-29 16:06:01","75b73886ef0cdcad6d9187958adaa33b","5e2f1e401a4075000d1bee59",0,"prolific","oaAlpha","","","","","",1536,"trial2.jpg","g",1,"true","5e2f1e401a4075000d1bee59",2,NA,"true",NA,"",TRUE,2
"image-keyboard-response",21,54557,"0.0-21.0",18,1,"2022-05-29 16:06:01","75b73886ef0cdcad6d9187958adaa33b","5e2f1e401a4075000d1bee59",0,"prolific","oaAlpha","","","","","",917,"trial3.jpg","j",3,"true","5e2f1e401a4075000d1bee59",3,NA,"true",NA,"",TRUE,3
"image-keyboard-response",27,69684,"0.0-27.0",18,1,"2022-05-29 16:06:01","75b73886ef0cdcad6d9187958adaa33b","5e2f1e401a4075000d1bee59",0,"prolific","oaAlpha","","","","","",2841,"trial4.jpg","h",2,"true","5e2f1e401a4075000d1bee59",4,NA,"true",NA,"",TRUE,4
"image-keyboard-response",29,73711,"0.0-29.0",18,1,"2022-05-29 16:06:01","75b73886ef0cdcad6d9187958adaa33b","5e2f1e401a4075000d1bee59",0,"prolific","oaAlpha","","","","","",2521,"trial5.jpg","j",3,"true","5e2f1e401a4075000d1bee59",5,NA,"true",NA,"",TRUE,5
"image-keyboard-response",31,76588,"0.0-31.0",18,1,"2022-05-29 16:06:01","75b73886ef0cdcad6d9187958adaa33b","5e2f1e401a4075000d1bee59",0,"prolific","oaAlpha","","","","","",1369,"trial6.jpg","h",2,"true","5e2f1e401a4075000d1bee59",6,NA,"true",NA,"",TRUE,6
"image-keyboard-response",37,91127,"0.0-37.0",18,1,"2022-05-29 16:06:01","75b73886ef0cdcad6d9187958adaa33b","5e2f1e401a4075000d1bee59",0,"prolific","oaAlpha","","","","","",2317,"trial7.jpg","j",3,"true","5e2f1e401a4075000d1bee59",7,NA,"true",NA,"",TRUE,7
"image-keyboard-response",39,94190,"0.0-39.0",18,1,"2022-05-29 16:06:01","75b73886ef0cdcad6d9187958adaa33b","5e2f1e401a4075000d1bee59",0,"prolific","oaAlpha","","","","","",1553,"trial8.jpg","g",1,"true","5e2f1e401a4075000d1bee59",8,NA,"true",NA,"",TRUE,8
"image-keyboard-response",41,97209,"0.0-41.0",18,1,"2022-05-29 16:06:01","75b73886ef0cdcad6d9187958adaa33b","5e2f1e401a4075000d1bee59",0,"prolific","oaAlpha","","","","","",1511,"trial9.jpg","j",3,"true","5e2f1e401a4075000d1bee59",9,NA,"true",NA,"",TRUE,9
"image-keyboard-response",47,110604,"0.0-47.0",18,1,"2022-05-29 16:06:01","75b73886ef0cdcad6d9187958adaa33b","5e2f1e401a4075000d1bee59",0,"prolific","oaAlpha","","","","","",1169,"trial10.jpg","j",3,"true","5e2f1e401a4075000d1bee59",10,NA,"true",NA,"",TRUE,10
"image-keyboard-response",49,113234,"0.0-49.0",18,1,"2022-05-29 16:06:01","75b73886ef0cdcad6d9187958adaa33b","5e2f1e401a4075000d1bee59",0,"prolific","oaAlpha","","","","","",1122,"trial11.jpg","g",1,"true","5e2f1e401a4075000d1bee59",11,NA,"true",NA,"",TRUE,11
"image-keyboard-response",51,116338,"0.0-51.0",18,1,"2022-05-29 16:06:01","75b73886ef0cdcad6d9187958adaa33b","5e2f1e401a4075000d1bee59",0,"prolific","oaAlpha","","","","","",1598,"trial12.jpg","j",3,"true","5e2f1e401a4075000d1bee59",12,NA,"true",NA,"",TRUE,12
"image-keyboard-response",57,131572,"0.0-57.0",18,1,"2022-05-29 16:06:01","75b73886ef0cdcad6d9187958adaa33b","5e2f1e401a4075000d1bee59",0,"prolific","oaAlpha","","","","","",2756,"trial13.jpg","g",1,"true","5e2f1e401a4075000d1bee59",13,NA,"true",NA,"",TRUE,13
"image-keyboard-response",59,134690,"0.0-59.0",18,1,"2022-05-29 16:06:01","75b73886ef0cdcad6d9187958adaa33b","5e2f1e401a4075000d1bee59",0,"prolific","oaAlpha","","","","","",1609,"trial14.jpg","h",2,"true","5e2f1e401a4075000d1bee59",14,NA,"true",NA,"",TRUE,14
"image-keyboard-response",61,137320,"0.0-61.0",18,1,"2022-05-29 16:06:01","75b73886ef0cdcad6d9187958adaa33b","5e2f1e401a4075000d1bee59",0,"prolific","oaAlpha","","","","","",1124,"trial15.jpg","g",1,"true","5e2f1e401a4075000d1bee59",15,NA,"true",NA,"",TRUE,15
"image-keyboard-response",67,151493,"0.0-67.0",18,1,"2022-05-29 16:06:01","75b73886ef0cdcad6d9187958adaa33b","5e2f1e401a4075000d1bee59",0,"prolific","oaAlpha","","","","","",2491,"trial16.jpg","h",2,"true","5e2f1e401a4075000d1bee59",16,NA,"true",NA,"",TRUE,16
"image-keyboard-response",69,154781,"0.0-69.0",18,1,"2022-05-29 16:06:01","75b73886ef0cdcad6d9187958adaa33b","5e2f1e401a4075000d1bee59",0,"prolific","oaAlpha","","","","","",1778,"trial17.jpg","h",2,"true","5e2f1e401a4075000d1bee59",17,NA,"true",NA,"",TRUE,17
"image-keyboard-response",71,157631,"0.0-71.0",18,1,"2022-05-29 16:06:01","75b73886ef0cdcad6d9187958adaa33b","5e2f1e401a4075000d1bee59",0,"prolific","oaAlpha","","","","","",1336,"trial18.jpg","g",1,"true","5e2f1e401a4075000d1bee59",18,NA,"true",NA,"",TRUE,18
"image-keyboard-response",76,191306,"0.0-76.0",18,1,"2022-05-29 16:06:01","75b73886ef0cdcad6d9187958adaa33b","5e2f1e401a4075000d1bee59",0,"prolific","oaAlpha","","","","","",4737,"trial19.jpg","h",2,"true","5e2f1e401a4075000d1bee59",19,NA,"true",NA,"",TRUE,19
"image-keyboard-response",77,194231,"0.0-77.0",18,1,"2022-05-29 16:06:01","75b73886ef0cdcad6d9187958adaa33b","5e2f1e401a4075000d1bee59",0,"prolific","oaAlpha","","","","","",2419,"trial20.jpg","j",1,"false","5e2f1e401a4075000d1bee59",20,NA,"true",NA,"",FALSE,20
"image-keyboard-response",78,197531,"0.0-78.0",18,1,"2022-05-29 16:06:01","75b73886ef0cdcad6d9187958adaa33b","5e2f1e401a4075000d1bee59",0,"prolific","oaAlpha","","","","","",2796,"trial21.jpg","j",1,"false","5e2f1e401a4075000d1bee59",21,NA,"true",NA,"",FALSE,21
"image-keyboard-response",79,201430,"0.0-79.0",18,1,"2022-05-29 16:06:01","75b73886ef0cdcad6d9187958adaa33b","5e2f1e401a4075000d1bee59",0,"prolific","oaAlpha","","","","","",3394,"trial22.jpg","h",3,"false","5e2f1e401a4075000d1bee59",22,NA,"true",NA,"",FALSE,22
"image-keyboard-response",80,204757,"0.0-80.0",18,1,"2022-05-29 16:06:01","75b73886ef0cdcad6d9187958adaa33b","5e2f1e401a4075000d1bee59",0,"prolific","oaAlpha","","","","","",2821,"trial23.jpg","g",1,"true","5e2f1e401a4075000d1bee59",23,NA,"true",NA,"",TRUE,23
"image-keyboard-response",81,208372,"0.0-81.0",18,1,"2022-05-29 16:06:01","75b73886ef0cdcad6d9187958adaa33b","5e2f1e401a4075000d1bee59",0,"prolific","oaAlpha","","","","","",3110,"trial24.jpg","h",3,"false","5e2f1e401a4075000d1bee59",24,NA,"true",NA,"",FALSE,24
"image-keyboard-response",82,212657,"0.0-82.0",18,1,"2022-05-29 16:06:01","75b73886ef0cdcad6d9187958adaa33b","5e2f1e401a4075000d1bee59",0,"prolific","oaAlpha","","","","","",3780,"trial25.jpg","g",1,"true","5e2f1e401a4075000d1bee59",25,NA,"true",NA,"",TRUE,25
"image-keyboard-response",83,217219,"0.0-83.0",18,1,"2022-05-29 16:06:01","75b73886ef0cdcad6d9187958adaa33b","5e2f1e401a4075000d1bee59",0,"prolific","oaAlpha","","","","","",4056,"trial26.jpg","g",1,"true","5e2f1e401a4075000d1bee59",26,NA,"true",NA,"",TRUE,26
"image-keyboard-response",84,220107,"0.0-84.0",18,1,"2022-05-29 16:06:01","75b73886ef0cdcad6d9187958adaa33b","5e2f1e401a4075000d1bee59",0,"prolific","oaAlpha","","","","","",2375,"trial27.jpg","h",3,"false","5e2f1e401a4075000d1bee59",27,NA,"true",NA,"",FALSE,27
"image-keyboard-response",85,224436,"0.0-85.0",18,1,"2022-05-29 16:06:01","75b73886ef0cdcad6d9187958adaa33b","5e2f1e401a4075000d1bee59",0,"prolific","oaAlpha","","","","","",3821,"trial28.jpg","h",2,"true","5e2f1e401a4075000d1bee59",28,NA,"true",NA,"",TRUE,28
"image-keyboard-response",86,227737,"0.0-86.0",18,1,"2022-05-29 16:06:01","75b73886ef0cdcad6d9187958adaa33b","5e2f1e401a4075000d1bee59",0,"prolific","oaAlpha","","","","","",2795,"trial29.jpg","j",3,"true","5e2f1e401a4075000d1bee59",29,NA,"true",NA,"",TRUE,29
"image-keyboard-response",87,230077,"0.0-87.0",18,1,"2022-05-29 16:06:01","75b73886ef0cdcad6d9187958adaa33b","5e2f1e401a4075000d1bee59",0,"prolific","oaAlpha","","","","","",1835,"trial30.jpg","h",2,"true","5e2f1e401a4075000d1bee59",30,NA,"true",NA,"",TRUE,30
"image-keyboard-response",88,234780,"0.0-88.0",18,1,"2022-05-29 16:06:01","75b73886ef0cdcad6d9187958adaa33b","5e2f1e401a4075000d1bee59",0,"prolific","oaAlpha","","","","","",4197,"trial31.jpg","j",2,"false","5e2f1e401a4075000d1bee59",31,NA,"true",NA,"",FALSE,31
"image-keyboard-response",89,238009,"0.0-89.0",18,1,"2022-05-29 16:06:01","75b73886ef0cdcad6d9187958adaa33b","5e2f1e401a4075000d1bee59",0,"prolific","oaAlpha","","","","","",2709,"trial32.jpg","j",2,"false","5e2f1e401a4075000d1bee59",32,NA,"true",NA,"",FALSE,32
"image-keyboard-response",90,240303,"0.0-90.0",18,1,"2022-05-29 16:06:01","75b73886ef0cdcad6d9187958adaa33b","5e2f1e401a4075000d1bee59",0,"prolific","oaAlpha","","","","","",1773,"trial33.jpg","g",1,"true","5e2f1e401a4075000d1bee59",33,NA,"true",NA,"",TRUE,33
"image-keyboard-response",91,243630,"0.0-91.0",18,1,"2022-05-29 16:06:01","75b73886ef0cdcad6d9187958adaa33b","5e2f1e401a4075000d1bee59",0,"prolific","oaAlpha","","","","","",2822,"trial34.jpg","g",3,"false","5e2f1e401a4075000d1bee59",34,NA,"true",NA,"",FALSE,34
"image-keyboard-response",92,245885,"0.0-92.0",18,1,"2022-05-29 16:06:01","75b73886ef0cdcad6d9187958adaa33b","5e2f1e401a4075000d1bee59",0,"prolific","oaAlpha","","","","","",1748,"trial35.jpg","h",2,"true","5e2f1e401a4075000d1bee59",35,NA,"true",NA,"",TRUE,35
"image-keyboard-response",93,248394,"0.0-93.0",18,1,"2022-05-29 16:06:01","75b73886ef0cdcad6d9187958adaa33b","5e2f1e401a4075000d1bee59",0,"prolific","oaAlpha","","","","","",2002,"trial36.jpg","j",3,"true","5e2f1e401a4075000d1bee59",36,NA,"true",NA,"",TRUE,36
"image-keyboard-response",97,279193,"0.0-97.0",18,1,"2022-05-29 16:06:01","75b73886ef0cdcad6d9187958adaa33b","5e2f1e401a4075000d1bee59",0,"prolific","oaAlpha","","","","","",1657,"trial37.jpg","g",1,"true","5e2f1e401a4075000d1bee59",37,NA,"true",NA,"",TRUE,37
"image-keyboard-response",98,281949,"0.0-98.0",18,1,"2022-05-29 16:06:01","75b73886ef0cdcad6d9187958adaa33b","5e2f1e401a4075000d1bee59",0,"prolific","oaAlpha","","","","","",2249,"trial38.jpg","g",2,"false","5e2f1e401a4075000d1bee59",38,NA,"true",NA,"",FALSE,38
"image-keyboard-response",99,284332,"0.0-99.0",18,1,"2022-05-29 16:06:01","75b73886ef0cdcad6d9187958adaa33b","5e2f1e401a4075000d1bee59",0,"prolific","oaAlpha","","","","","",1875,"trial39.jpg","j",1,"false","5e2f1e401a4075000d1bee59",39,NA,"true",NA,"",FALSE,39
"image-keyboard-response",100,286060,"0.0-100.0",18,1,"2022-05-29 16:06:01","75b73886ef0cdcad6d9187958adaa33b","5e2f1e401a4075000d1bee59",0,"prolific","oaAlpha","","","","","",1221,"trial40.jpg","h",3,"false","5e2f1e401a4075000d1bee59",40,NA,"true",NA,"",FALSE,40
"image-keyboard-response",101,289468,"0.0-101.0",18,1,"2022-05-29 16:06:01","75b73886ef0cdcad6d9187958adaa33b","5e2f1e401a4075000d1bee59",0,"prolific","oaAlpha","","","","","",2902,"trial41.jpg","h",3,"false","5e2f1e401a4075000d1bee59",41,NA,"true",NA,"",FALSE,41
"image-keyboard-response",102,291725,"0.0-102.0",18,1,"2022-05-29 16:06:01","75b73886ef0cdcad6d9187958adaa33b","5e2f1e401a4075000d1bee59",0,"prolific","oaAlpha","","","","","",1748,"trial42.jpg","g",1,"true","5e2f1e401a4075000d1bee59",42,NA,"true",NA,"",TRUE,42
"image-keyboard-response",103,293934,"0.0-103.0",18,1,"2022-05-29 16:06:01","75b73886ef0cdcad6d9187958adaa33b","5e2f1e401a4075000d1bee59",0,"prolific","oaAlpha","","","","","",1701,"trial43.jpg","h",3,"false","5e2f1e401a4075000d1bee59",43,NA,"true",NA,"",FALSE,43
"image-keyboard-response",104,296469,"0.0-104.0",18,1,"2022-05-29 16:06:01","75b73886ef0cdcad6d9187958adaa33b","5e2f1e401a4075000d1bee59",0,"prolific","oaAlpha","","","","","",2028,"trial44.jpg","j",3,"true","5e2f1e401a4075000d1bee59",44,NA,"true",NA,"",TRUE,44
"image-keyboard-response",106,305358,"0.0-106.0",18,1,"2022-05-29 16:06:01","75b73886ef0cdcad6d9187958adaa33b","5e2f1e401a4075000d1bee59",0,"prolific","oaAlpha","","","","","",3316,"trial45.jpg","g",3,"false","5e2f1e401a4075000d1bee59",45,NA,"true",NA,"",FALSE,45
"image-keyboard-response",107,307393,"0.0-107.0",18,1,"2022-05-29 16:06:01","75b73886ef0cdcad6d9187958adaa33b","5e2f1e401a4075000d1bee59",0,"prolific","oaAlpha","","","","","",1528,"trial46.jpg","g",1,"true","5e2f1e401a4075000d1bee59",46,NA,"true",NA,"",TRUE,46
"image-keyboard-response",108,309745,"0.0-108.0",18,1,"2022-05-29 16:06:01","75b73886ef0cdcad6d9187958adaa33b","5e2f1e401a4075000d1bee59",0,"prolific","oaAlpha","","","","","",1845,"trial47.jpg","h",2,"true","5e2f1e401a4075000d1bee59",47,NA,"true",NA,"",TRUE,47
"image-keyboard-response",109,311329,"0.0-109.0",18,1,"2022-05-29 16:06:01","75b73886ef0cdcad6d9187958adaa33b","5e2f1e401a4075000d1bee59",0,"prolific","oaAlpha","","","","","",1078,"trial48.jpg","h",2,"true","5e2f1e401a4075000d1bee59",48,NA,"true",NA,"",TRUE,48
"image-keyboard-response",110,313457,"0.0-110.0",18,1,"2022-05-29 16:06:01","75b73886ef0cdcad6d9187958adaa33b","5e2f1e401a4075000d1bee59",0,"prolific","oaAlpha","","","","","",1621,"trial49.jpg","j",2,"false","5e2f1e401a4075000d1bee59",49,NA,"true",NA,"",FALSE,49
"image-keyboard-response",111,315839,"0.0-111.0",18,1,"2022-05-29 16:06:01","75b73886ef0cdcad6d9187958adaa33b","5e2f1e401a4075000d1bee59",0,"prolific","oaAlpha","","","","","",1876,"trial50.jpg","g",1,"true","5e2f1e401a4075000d1bee59",50,NA,"true",NA,"",TRUE,50
"image-keyboard-response",112,319150,"0.0-112.0",18,1,"2022-05-29 16:06:01","75b73886ef0cdcad6d9187958adaa33b","5e2f1e401a4075000d1bee59",0,"prolific","oaAlpha","","","","","",2805,"trial51.jpg","j",2,"false","5e2f1e401a4075000d1bee59",51,NA,"true",NA,"",FALSE,51
"image-keyboard-response",113,322122,"0.0-113.0",18,1,"2022-05-29 16:06:01","75b73886ef0cdcad6d9187958adaa33b","5e2f1e401a4075000d1bee59",0,"prolific","oaAlpha","","","","","",2465,"trial52.jpg","h",1,"false","5e2f1e401a4075000d1bee59",52,NA,"true",NA,"",FALSE,52
"image-keyboard-response",114,323992,"0.0-114.0",18,1,"2022-05-29 16:06:01","75b73886ef0cdcad6d9187958adaa33b","5e2f1e401a4075000d1bee59",0,"prolific","oaAlpha","","","","","",1363,"trial53.jpg","h",3,"false","5e2f1e401a4075000d1bee59",53,NA,"true",NA,"",FALSE,53
"image-keyboard-response",115,325752,"0.0-115.0",18,1,"2022-05-29 16:06:01","75b73886ef0cdcad6d9187958adaa33b","5e2f1e401a4075000d1bee59",0,"prolific","oaAlpha","","","","","",1253,"trial54.jpg","j",2,"false","5e2f1e401a4075000d1bee59",54,NA,"true",NA,"",FALSE,54
"image-keyboard-response",116,327311,"0.0-116.0",18,1,"2022-05-29 16:06:01","75b73886ef0cdcad6d9187958adaa33b","5e2f1e401a4075000d1bee59",0,"prolific","oaAlpha","","","","","",1050,"trial55.jpg","h",2,"true","5e2f1e401a4075000d1bee59",55,NA,"true",NA,"",TRUE,55
"image-keyboard-response",117,329172,"0.0-117.0",18,1,"2022-05-29 16:06:01","75b73886ef0cdcad6d9187958adaa33b","5e2f1e401a4075000d1bee59",0,"prolific","oaAlpha","","","","","",1352,"trial56.jpg","h",2,"true","5e2f1e401a4075000d1bee59",56,NA,"true",NA,"",TRUE,56
"image-keyboard-response",118,331646,"0.0-118.0",18,1,"2022-05-29 16:06:01","75b73886ef0cdcad6d9187958adaa33b","5e2f1e401a4075000d1bee59",0,"prolific","oaAlpha","","","","","",1960,"trial57.jpg","g",1,"true","5e2f1e401a4075000d1bee59",57,NA,"true",NA,"",TRUE,57
"image-keyboard-response",119,334543,"0.0-119.0",18,1,"2022-05-29 16:06:01","75b73886ef0cdcad6d9187958adaa33b","5e2f1e401a4075000d1bee59",0,"prolific","oaAlpha","","","","","",2387,"trial58.jpg","j",3,"true","5e2f1e401a4075000d1bee59",58,NA,"true",NA,"",TRUE,58
"image-keyboard-response",120,336807,"0.0-120.0",18,1,"2022-05-29 16:06:01","75b73886ef0cdcad6d9187958adaa33b","5e2f1e401a4075000d1bee59",0,"prolific","oaAlpha","","","","","",1755,"trial59.jpg","g",3,"false","5e2f1e401a4075000d1bee59",59,NA,"true",NA,"",FALSE,59
"image-keyboard-response",121,339590,"0.0-121.0",18,1,"2022-05-29 16:06:01","75b73886ef0cdcad6d9187958adaa33b","5e2f1e401a4075000d1bee59",0,"prolific","oaAlpha","","","","","",2275,"trial60.jpg","g",2,"false","5e2f1e401a4075000d1bee59",60,NA,"true",NA,"",FALSE,60
"image-keyboard-response",122,341810,"0.0-122.0",18,1,"2022-05-29 16:06:01","75b73886ef0cdcad6d9187958adaa33b","5e2f1e401a4075000d1bee59",0,"prolific","oaAlpha","","","","","",1701,"trial61.jpg","h",2,"true","5e2f1e401a4075000d1bee59",61,NA,"true",NA,"",TRUE,61
"image-keyboard-response",123,344427,"0.0-123.0",18,1,"2022-05-29 16:06:01","75b73886ef0cdcad6d9187958adaa33b","5e2f1e401a4075000d1bee59",0,"prolific","oaAlpha","","","","","",2110,"trial62.jpg","h",1,"false","5e2f1e401a4075000d1bee59",62,NA,"true",NA,"",FALSE,62
"image-keyboard-response",124,347047,"0.0-124.0",18,1,"2022-05-29 16:06:01","75b73886ef0cdcad6d9187958adaa33b","5e2f1e401a4075000d1bee59",0,"prolific","oaAlpha","","","","","",2113,"trial63.jpg","g",1,"true","5e2f1e401a4075000d1bee59",63,NA,"true",NA,"",TRUE,63
"image-keyboard-response",125,349127,"0.0-125.0",18,1,"2022-05-29 16:06:01","75b73886ef0cdcad6d9187958adaa33b","5e2f1e401a4075000d1bee59",0,"prolific","oaAlpha","","","","","",1570,"trial64.jpg","j",2,"false","5e2f1e401a4075000d1bee59",64,NA,"true",NA,"",FALSE,64
"image-keyboard-response",126,352550,"0.0-126.0",18,1,"2022-05-29 16:06:01","75b73886ef0cdcad6d9187958adaa33b","5e2f1e401a4075000d1bee59",0,"prolific","oaAlpha","","","","","",2916,"trial65.jpg","g",1,"true","5e2f1e401a4075000d1bee59",65,NA,"true",NA,"",TRUE,65
"image-keyboard-response",127,355362,"0.0-127.0",18,1,"2022-05-29 16:06:01","75b73886ef0cdcad6d9187958adaa33b","5e2f1e401a4075000d1bee59",0,"prolific","oaAlpha","","","","","",2303,"trial66.jpg","h",1,"false","5e2f1e401a4075000d1bee59",66,NA,"true",NA,"",FALSE,66
"image-keyboard-response",128,357477,"0.0-128.0",18,1,"2022-05-29 16:06:01","75b73886ef0cdcad6d9187958adaa33b","5e2f1e401a4075000d1bee59",0,"prolific","oaAlpha","","","","","",1607,"trial67.jpg","j",3,"true","5e2f1e401a4075000d1bee59",67,NA,"true",NA,"",TRUE,67
"image-keyboard-response",129,360963,"0.0-129.0",18,1,"2022-05-29 16:06:01","75b73886ef0cdcad6d9187958adaa33b","5e2f1e401a4075000d1bee59",0,"prolific","oaAlpha","","","","","",2978,"trial68.jpg","g",1,"true","5e2f1e401a4075000d1bee59",68,NA,"true",NA,"",TRUE,68
"image-keyboard-response",130,363651,"0.0-130.0",18,1,"2022-05-29 16:06:01","75b73886ef0cdcad6d9187958adaa33b","5e2f1e401a4075000d1bee59",0,"prolific","oaAlpha","","","","","",2181,"trial69.jpg","h",3,"false","5e2f1e401a4075000d1bee59",69,NA,"true",NA,"",FALSE,69
"image-keyboard-response",131,365107,"0.0-131.0",18,1,"2022-05-29 16:06:01","75b73886ef0cdcad6d9187958adaa33b","5e2f1e401a4075000d1bee59",0,"prolific","oaAlpha","","","","","",946,"trial70.jpg","g",3,"false","5e2f1e401a4075000d1bee59",70,NA,"true",NA,"",FALSE,70
"image-keyboard-response",132,368122,"0.0-132.0",18,1,"2022-05-29 16:06:01","75b73886ef0cdcad6d9187958adaa33b","5e2f1e401a4075000d1bee59",0,"prolific","oaAlpha","","","","","",2508,"trial71.jpg","h",3,"false","5e2f1e401a4075000d1bee59",71,NA,"true",NA,"",FALSE,71
"image-keyboard-response",133,369726,"0.0-133.0",18,1,"2022-05-29 16:06:01","75b73886ef0cdcad6d9187958adaa33b","5e2f1e401a4075000d1bee59",0,"prolific","oaAlpha","","","","","",1096,"trial72.jpg","j",2,"false","5e2f1e401a4075000d1bee59",72,NA,"true",NA,"",FALSE,72
"image-keyboard-response",17,110618,"0.0-17.0",15,1,"2022-05-28 00:18:57","75b73886ef0cdcad6d9187958adaa33b","61187c45d93e3453dc89ec8e",0,"prolific","oaAlpha","","","","","",11899,"trial1.jpg","h",2,"true","61187c45d93e3453dc89ec8e",1,NA,"true",NA,"",TRUE,1
"image-keyboard-response",19,118576,"0.0-19.0",15,1,"2022-05-28 00:18:57","75b73886ef0cdcad6d9187958adaa33b","61187c45d93e3453dc89ec8e",0,"prolific","oaAlpha","","","","","",6453,"trial2.jpg","g",1,"true","61187c45d93e3453dc89ec8e",2,NA,"true",NA,"",TRUE,2
"image-keyboard-response",21,125132,"0.0-21.0",15,1,"2022-05-28 00:18:57","75b73886ef0cdcad6d9187958adaa33b","61187c45d93e3453dc89ec8e",0,"prolific","oaAlpha","","","","","",5053,"trial3.jpg","j",3,"true","61187c45d93e3453dc89ec8e",3,NA,"true",NA,"",TRUE,3
"image-keyboard-response",27,142589,"0.0-27.0",15,1,"2022-05-28 00:18:57","75b73886ef0cdcad6d9187958adaa33b","61187c45d93e3453dc89ec8e",0,"prolific","oaAlpha","","","","","",3830,"trial4.jpg","h",2,"true","61187c45d93e3453dc89ec8e",4,NA,"true",NA,"",TRUE,4
"image-keyboard-response",29,149253,"0.0-29.0",15,1,"2022-05-28 00:18:57","75b73886ef0cdcad6d9187958adaa33b","61187c45d93e3453dc89ec8e",0,"prolific","oaAlpha","","","","","",5156,"trial5.jpg","j",3,"true","61187c45d93e3453dc89ec8e",5,NA,"true",NA,"",TRUE,5
"image-keyboard-response",31,155930,"0.0-31.0",15,1,"2022-05-28 00:18:57","75b73886ef0cdcad6d9187958adaa33b","61187c45d93e3453dc89ec8e",0,"prolific","oaAlpha","","","","","",5171,"trial6.jpg","h",2,"true","61187c45d93e3453dc89ec8e",6,NA,"true",NA,"",TRUE,6
"image-keyboard-response",37,172924,"0.0-37.0",15,1,"2022-05-28 00:18:57","75b73886ef0cdcad6d9187958adaa33b","61187c45d93e3453dc89ec8e",0,"prolific","oaAlpha","","","","","",4138,"trial7.jpg","j",3,"true","61187c45d93e3453dc89ec8e",7,NA,"true",NA,"",TRUE,7
"image-keyboard-response",39,177451,"0.0-39.0",15,1,"2022-05-28 00:18:57","75b73886ef0cdcad6d9187958adaa33b","61187c45d93e3453dc89ec8e",0,"prolific","oaAlpha","","","","","",3021,"trial8.jpg","g",1,"true","61187c45d93e3453dc89ec8e",8,NA,"true",NA,"",TRUE,8
"image-keyboard-response",41,181742,"0.0-41.0",15,1,"2022-05-28 00:18:57","75b73886ef0cdcad6d9187958adaa33b","61187c45d93e3453dc89ec8e",0,"prolific","oaAlpha","","","","","",2779,"trial9.jpg","j",3,"true","61187c45d93e3453dc89ec8e",9,NA,"true",NA,"",TRUE,9
"image-keyboard-response",47,197372,"0.0-47.0",15,1,"2022-05-28 00:18:57","75b73886ef0cdcad6d9187958adaa33b","61187c45d93e3453dc89ec8e",0,"prolific","oaAlpha","","","","","",2917,"trial10.jpg","j",3,"true","61187c45d93e3453dc89ec8e",10,NA,"true",NA,"",TRUE,10
"image-keyboard-response",49,201595,"0.0-49.0",15,1,"2022-05-28 00:18:57","75b73886ef0cdcad6d9187958adaa33b","61187c45d93e3453dc89ec8e",0,"prolific","oaAlpha","","","","","",2716,"trial11.jpg","g",1,"true","61187c45d93e3453dc89ec8e",11,NA,"true",NA,"",TRUE,11
"image-keyboard-response",51,205632,"0.0-51.0",15,1,"2022-05-28 00:18:57","75b73886ef0cdcad6d9187958adaa33b","61187c45d93e3453dc89ec8e",0,"prolific","oaAlpha","","","","","",2526,"trial12.jpg","j",3,"true","61187c45d93e3453dc89ec8e",12,NA,"true",NA,"",TRUE,12
"image-keyboard-response",57,221441,"0.0-57.0",15,1,"2022-05-28 00:18:57","75b73886ef0cdcad6d9187958adaa33b","61187c45d93e3453dc89ec8e",0,"prolific","oaAlpha","","","","","",3130,"trial13.jpg","g",1,"true","61187c45d93e3453dc89ec8e",13,NA,"true",NA,"",TRUE,13
"image-keyboard-response",59,226287,"0.0-59.0",15,1,"2022-05-28 00:18:57","75b73886ef0cdcad6d9187958adaa33b","61187c45d93e3453dc89ec8e",0,"prolific","oaAlpha","","","","","",3335,"trial14.jpg","h",2,"true","61187c45d93e3453dc89ec8e",14,NA,"true",NA,"",TRUE,14
"image-keyboard-response",61,230610,"0.0-61.0",15,1,"2022-05-28 00:18:57","75b73886ef0cdcad6d9187958adaa33b","61187c45d93e3453dc89ec8e",0,"prolific","oaAlpha","","","","","",2814,"trial15.jpg","g",1,"true","61187c45d93e3453dc89ec8e",15,NA,"true",NA,"",TRUE,15
"image-keyboard-response",67,247593,"0.0-67.0",15,1,"2022-05-28 00:18:57","75b73886ef0cdcad6d9187958adaa33b","61187c45d93e3453dc89ec8e",0,"prolific","oaAlpha","","","","","",3239,"trial16.jpg","h",2,"true","61187c45d93e3453dc89ec8e",16,NA,"true",NA,"",TRUE,16
"image-keyboard-response",69,251898,"0.0-69.0",15,1,"2022-05-28 00:18:57","75b73886ef0cdcad6d9187958adaa33b","61187c45d93e3453dc89ec8e",0,"prolific","oaAlpha","","","","","",2791,"trial17.jpg","h",2,"true","61187c45d93e3453dc89ec8e",17,NA,"true",NA,"",TRUE,17
"image-keyboard-response",71,255837,"0.0-71.0",15,1,"2022-05-28 00:18:57","75b73886ef0cdcad6d9187958adaa33b","61187c45d93e3453dc89ec8e",0,"prolific","oaAlpha","","","","","",2432,"trial18.jpg","g",1,"true","61187c45d93e3453dc89ec8e",18,NA,"true",NA,"",TRUE,18
"image-keyboard-response",76,309868,"0.0-76.0",15,1,"2022-05-28 00:18:57","75b73886ef0cdcad6d9187958adaa33b","61187c45d93e3453dc89ec8e",0,"prolific","oaAlpha","","","","","",14566,"trial19.jpg","h",2,"true","61187c45d93e3453dc89ec8e",19,NA,"true",NA,"",TRUE,19
"image-keyboard-response",77,330045,"0.0-77.0",15,1,"2022-05-28 00:18:57","75b73886ef0cdcad6d9187958adaa33b","61187c45d93e3453dc89ec8e",0,"prolific","oaAlpha","","","","","",19673,"trial20.jpg","j",1,"false","61187c45d93e3453dc89ec8e",20,NA,"true",NA,"",FALSE,20
"image-keyboard-response",78,337208,"0.0-78.0",15,1,"2022-05-28 00:18:57","75b73886ef0cdcad6d9187958adaa33b","61187c45d93e3453dc89ec8e",0,"prolific","oaAlpha","","","","","",6654,"trial21.jpg","g",1,"true","61187c45d93e3453dc89ec8e",21,NA,"true",NA,"",TRUE,21
