"trial_type","trial_index","time_elapsed","internal_node_id","run_id","condition","recorded_at","source_code_version","id","attn","src","success","timeout","failed_images","failed_audio","failed_video","rt","stimulus","response","testTrial","SbjID","Category","Trial","CorrRes","View","Size","Img1","Img2","Duration","Corr","AttentionFails","attentionTrial","study","corr","trialN"
"image-keyboard-response",33,231581,"0.0-33.0",100,1,"2022-05-29 22:29:28","01bf73284bfe92835907527684da8ca2","5b9b3977cc5dd0000165ff0b",0,"prolific","","","","","",1027,"nz1_66_b.jpg","g",TRUE,"5b9b3977cc5dd0000165ff0b",0,1,2,"same","diff","nz1_30_b.jpg","nz1_66_b.jpg","long","false",0,"","oaAlpha",FALSE,1
"image-keyboard-response",37,236708,"0.0-37.0",100,1,"2022-05-29 22:29:28","01bf73284bfe92835907527684da8ca2","5b9b3977cc5dd0000165ff0b",0,"prolific","","","","","",3306,"nz1_67_a.jpg","h",TRUE,"5b9b3977cc5dd0000165ff0b",0,2,2,"diff","same","nz1_68_b.jpg","nz1_67_a.jpg","long","true",0,"","oaAlpha",TRUE,2
"image-keyboard-response",41,240051,"0.0-41.0",100,1,"2022-05-29 22:29:28","01bf73284bfe92835907527684da8ca2","5b9b3977cc5dd0000165ff0b",0,"prolific","","","","","",1525,"nz1_72_b.jpg","g",TRUE,"5b9b3977cc5dd0000165ff0b",0,3,1,"same","same","nz1_72_b.jpg","nz1_72_b.jpg","long","true",0,"","oaAlpha",TRUE,3
"image-keyboard-response",45,244199,"0.0-45.0",100,1,"2022-05-29 22:29:28","01bf73284bfe92835907527684da8ca2","5b9b3977cc5dd0000165ff0b",0,"prolific","","","","","",2331,"nz1_40_a.jpg","h",TRUE,"5b9b3977cc5dd0000165ff0b",0,4,1,"diff","same","nz1_40_b.jpg","nz1_40_a.jpg","long","false",0,"","oaAlpha",FALSE,4
"image-keyboard-response",49,249106,"0.0-49.0",100,1,"2022-05-29 22:29:28","01bf73284bfe92835907527684da8ca2","5b9b3977cc5dd0000165ff0b",0,"prolific","","","","","",3088,"nz1_38_b.jpg","h",TRUE,"5b9b3977cc5dd0000165ff0b",0,5,2,"diff","diff","nz1_73_a.jpg","nz1_38_b.jpg","long","true",0,"","oaAlpha",TRUE,5
"image-keyboard-response",53,253591,"0.0-53.0",100,1,"2022-05-29 22:29:28","01bf73284bfe92835907527684da8ca2","5b9b3977cc5dd0000165ff0b",0,"prolific","","","","","",2665,"nz1_48_a.jpg","h",TRUE,"5b9b3977cc5dd0000165ff0b",0,6,2,"diff","diff","nz1_46_b.jpg","nz1_48_a.jpg","long","true",0,"","oaAlpha",TRUE,6
"image-keyboard-response",57,256453,"0.0-57.0",100,1,"2022-05-29 22:29:28","01bf73284bfe92835907527684da8ca2","5b9b3977cc5dd0000165ff0b",0,"prolific","","","","","",1036,"nz1_68_a.jpg","g",TRUE,"5b9b3977cc5dd0000165ff0b",0,7,1,"same","diff","nz1_68_a.jpg","nz1_68_a.jpg","long","true",0,"","oaAlpha",TRUE,7
"image-keyboard-response",61,261141,"0.0-61.0",100,1,"2022-05-29 22:29:28","01bf73284bfe92835907527684da8ca2","5b9b3977cc5dd0000165ff0b",0,"prolific","","","","","",2865,"nz1_20_a.jpg","h",TRUE,"5b9b3977cc5dd0000165ff0b",0,8,2,"diff","same","nz1_56_b.jpg","nz1_20_a.jpg","long","true",0,"","oaAlpha",TRUE,8
"image-keyboard-response",65,264574,"0.0-65.0",100,1,"2022-05-29 22:29:28","01bf73284bfe92835907527684da8ca2","5b9b3977cc5dd0000165ff0b",0,"prolific","","","","","",1609,"nz1_14_b.jpg","g",TRUE,"5b9b3977cc5dd0000165ff0b",0,9,2,"same","diff","nz1_18_b.jpg","nz1_14_b.jpg","long","false",0,"","oaAlpha",FALSE,9
"image-keyboard-response",69,269286,"0.0-69.0",100,1,"2022-05-29 22:29:28","01bf73284bfe92835907527684da8ca2","5b9b3977cc5dd0000165ff0b",0,"prolific","","","","","",2892,"nz1_32_a.jpg","g",TRUE,"5b9b3977cc5dd0000165ff0b",0,10,2,"same","diff","nz1_34_a.jpg","nz1_32_a.jpg","long","false",0,"","oaAlpha",FALSE,10
"image-keyboard-response",73,272728,"0.0-73.0",100,1,"2022-05-29 22:29:28","01bf73284bfe92835907527684da8ca2","5b9b3977cc5dd0000165ff0b",0,"prolific","","","","","",1620,"nz1_56_a.jpg","g",TRUE,"5b9b3977cc5dd0000165ff0b",0,11,1,"same","diff","nz1_56_a.jpg","nz1_56_a.jpg","long","true",0,"","oaAlpha",TRUE,11
"image-keyboard-response",77,276284,"0.0-77.0",100,1,"2022-05-29 22:29:28","01bf73284bfe92835907527684da8ca2","5b9b3977cc5dd0000165ff0b",0,"prolific","","","","","",1733,"nz1_24_a.jpg","h",TRUE,"5b9b3977cc5dd0000165ff0b",0,12,1,"diff","same","nz1_24_b.jpg","nz1_24_a.jpg","long","false",0,"","oaAlpha",FALSE,12
"image-keyboard-response",81,279868,"0.0-81.0",100,1,"2022-05-29 22:29:28","01bf73284bfe92835907527684da8ca2","5b9b3977cc5dd0000165ff0b",0,"prolific","","","","","",1758,"nz1_44_b.jpg","h",TRUE,"5b9b3977cc5dd0000165ff0b",0,13,1,"diff","diff","nz1_44_a.jpg","nz1_44_b.jpg","long","false",0,"","oaAlpha",FALSE,13
"image-keyboard-response",85,283710,"0.0-85.0",100,1,"2022-05-29 22:29:28","01bf73284bfe92835907527684da8ca2","5b9b3977cc5dd0000165ff0b",0,"prolific","","","","","",2017,"nz1_46_a.jpg","g",TRUE,"5b9b3977cc5dd0000165ff0b",0,14,1,"diff","same","nz1_46_b.jpg","nz1_46_a.jpg","long","true",0,"","oaAlpha",TRUE,14
"image-keyboard-response",89,286747,"0.0-89.0",100,1,"2022-05-29 22:29:28","01bf73284bfe92835907527684da8ca2","5b9b3977cc5dd0000165ff0b",0,"prolific","","","","","",1212,"nz1_24_a.jpg","g",TRUE,"5b9b3977cc5dd0000165ff0b",0,15,1,"same","same","nz1_24_a.jpg","nz1_24_a.jpg","long","true",0,"","oaAlpha",TRUE,15
"image-keyboard-response",93,290647,"0.0-93.0",100,1,"2022-05-29 22:29:28","01bf73284bfe92835907527684da8ca2","5b9b3977cc5dd0000165ff0b",0,"prolific","","","","","",2071,"nz1_67_b.jpg","h",TRUE,"5b9b3977cc5dd0000165ff0b",0,16,2,"same","diff","nz1_68_b.jpg","nz1_67_b.jpg","long","true",0,"","oaAlpha",TRUE,16
"image-keyboard-response",97,294478,"0.0-97.0",100,1,"2022-05-29 22:29:28","01bf73284bfe92835907527684da8ca2","5b9b3977cc5dd0000165ff0b",0,"prolific","","","","","",2000,"nz1_26_b.jpg","h",TRUE,"5b9b3977cc5dd0000165ff0b",0,17,2,"diff","same","nz1_65_a.jpg","nz1_26_b.jpg","long","true",0,"","oaAlpha",TRUE,17
"image-keyboard-response",101,298618,"0.0-101.0",100,1,"2022-05-29 22:29:28","01bf73284bfe92835907527684da8ca2","5b9b3977cc5dd0000165ff0b",0,"prolific","","","","","",2310,"nz1_36_b.jpg","h",TRUE,"5b9b3977cc5dd0000165ff0b",0,18,2,"diff","same","nz1_28_a.jpg","nz1_36_b.jpg","long","true",0,"","oaAlpha",TRUE,18
"image-keyboard-response",105,301535,"0.0-105.0",100,1,"2022-05-29 22:29:28","01bf73284bfe92835907527684da8ca2","5b9b3977cc5dd0000165ff0b",0,"prolific","","","","","",1086,"nz1_36_a.jpg","g",TRUE,"5b9b3977cc5dd0000165ff0b",0,19,2,"same","same","nz1_28_a.jpg","nz1_36_a.jpg","long","false",0,"","oaAlpha",FALSE,19
"image-keyboard-response",109,304888,"0.0-109.0",100,1,"2022-05-29 22:29:28","01bf73284bfe92835907527684da8ca2","5b9b3977cc5dd0000165ff0b",0,"prolific","","","","","",1520,"nz1_70_b.jpg","h",TRUE,"5b9b3977cc5dd0000165ff0b",0,20,2,"diff","same","nz1_72_a.jpg","nz1_70_b.jpg","long","true",0,"","oaAlpha",TRUE,20
"image-keyboard-response",113,308352,"0.0-113.0",100,1,"2022-05-29 22:29:28","01bf73284bfe92835907527684da8ca2","5b9b3977cc5dd0000165ff0b",0,"prolific","","","","","",1632,"nz1_65_b.jpg","h",TRUE,"5b9b3977cc5dd0000165ff0b",0,21,2,"same","same","nz1_26_b.jpg","nz1_65_b.jpg","long","true",0,"","oaAlpha",TRUE,21
"image-keyboard-response",117,311217,"0.0-117.0",100,1,"2022-05-29 22:29:28","01bf73284bfe92835907527684da8ca2","5b9b3977cc5dd0000165ff0b",0,"prolific","","","","","",1033,"nz1_12_b.jpg","g",TRUE,"5b9b3977cc5dd0000165ff0b",0,22,1,"same","same","nz1_12_b.jpg","nz1_12_b.jpg","long","true",0,"","oaAlpha",TRUE,22
"image-keyboard-response",121,314399,"0.0-121.0",100,1,"2022-05-29 22:29:28","01bf73284bfe92835907527684da8ca2","5b9b3977cc5dd0000165ff0b",0,"prolific","","","","","",1351,"nz1_64_b.jpg","g",TRUE,"5b9b3977cc5dd0000165ff0b",0,23,1,"same","same","nz1_64_b.jpg","nz1_64_b.jpg","long","true",0,"","oaAlpha",TRUE,23
"image-keyboard-response",125,317240,"0.0-125.0",100,1,"2022-05-29 22:29:28","01bf73284bfe92835907527684da8ca2","5b9b3977cc5dd0000165ff0b",0,"prolific","","","","","",1004,"nz1_61_b.jpg","g",TRUE,"5b9b3977cc5dd0000165ff0b",0,24,2,"same","same","nz1_71_b.jpg","nz1_61_b.jpg","long","false",0,"","oaAlpha",FALSE,24
"image-keyboard-response",129,320987,"0.0-129.0",100,1,"2022-05-29 22:29:28","01bf73284bfe92835907527684da8ca2","5b9b3977cc5dd0000165ff0b",0,"prolific","","","","","",1916,"nz1_18_b.jpg","h",TRUE,"5b9b3977cc5dd0000165ff0b",0,25,1,"diff","same","nz1_18_a.jpg","nz1_18_b.jpg","long","false",0,"","oaAlpha",FALSE,25
"image-keyboard-response",133,324439,"0.0-133.0",100,1,"2022-05-29 22:29:28","01bf73284bfe92835907527684da8ca2","5b9b3977cc5dd0000165ff0b",0,"prolific","","","","","",1616,"nz1_67_b.jpg","g",TRUE,"5b9b3977cc5dd0000165ff0b",0,26,1,"diff","same","nz1_67_a.jpg","nz1_67_b.jpg","long","true",0,"","oaAlpha",TRUE,26
"image-keyboard-response",137,330688,"0.0-137.0",100,1,"2022-05-29 22:29:28","01bf73284bfe92835907527684da8ca2","5b9b3977cc5dd0000165ff0b",0,"prolific","","","","","",4416,"nz1_76_b.jpg","h",TRUE,"5b9b3977cc5dd0000165ff0b",0,27,2,"same","diff","nz1_77_b.jpg","nz1_76_b.jpg","long","true",0,"","oaAlpha",TRUE,27
"image-keyboard-response",141,333959,"0.0-141.0",100,1,"2022-05-29 22:29:28","01bf73284bfe92835907527684da8ca2","5b9b3977cc5dd0000165ff0b",0,"prolific","","","","","",1435,"nz1_65_b.jpg","g",TRUE,"5b9b3977cc5dd0000165ff0b",0,28,1,"same","same","nz1_65_b.jpg","nz1_65_b.jpg","long","true",0,"","oaAlpha",TRUE,28
"image-keyboard-response",145,336973,"0.0-145.0",100,1,"2022-05-29 22:29:28","01bf73284bfe92835907527684da8ca2","5b9b3977cc5dd0000165ff0b",0,"prolific","","","","","",1171,"nz1_14_a.jpg","g",TRUE,"5b9b3977cc5dd0000165ff0b",0,29,1,"same","same","nz1_14_a.jpg","nz1_14_a.jpg","long","true",0,"","oaAlpha",TRUE,29
"image-keyboard-response",149,341776,"0.0-149.0",100,1,"2022-05-29 22:29:28","01bf73284bfe92835907527684da8ca2","5b9b3977cc5dd0000165ff0b",0,"prolific","","","","","",2967,"nz1_67_b.jpg","g",TRUE,"5b9b3977cc5dd0000165ff0b",0,30,1,"same","diff","nz1_67_b.jpg","nz1_67_b.jpg","long","true",0,"","oaAlpha",TRUE,30
"image-keyboard-response",153,344538,"0.0-153.0",100,1,"2022-05-29 22:29:28","01bf73284bfe92835907527684da8ca2","5b9b3977cc5dd0000165ff0b",0,"prolific","","","","","",923,"nz1_70_b.jpg","g",TRUE,"5b9b3977cc5dd0000165ff0b",0,31,2,"same","same","nz1_72_b.jpg","nz1_70_b.jpg","long","false",0,"","oaAlpha",FALSE,31
"image-keyboard-response",157,350148,"0.0-157.0",100,1,"2022-05-29 22:29:28","01bf73284bfe92835907527684da8ca2","5b9b3977cc5dd0000165ff0b",0,"prolific","","","","","",3773,"nz1_54_b.jpg","h",TRUE,"5b9b3977cc5dd0000165ff0b",0,32,2,"diff","same","nz1_58_a.jpg","nz1_54_b.jpg","long","true",0,"","oaAlpha",TRUE,32
"image-keyboard-response",161,354064,"0.0-161.0",100,1,"2022-05-29 22:29:28","01bf73284bfe92835907527684da8ca2","5b9b3977cc5dd0000165ff0b",0,"prolific","","","","","",2078,"nz1_77_a.jpg","h",TRUE,"5b9b3977cc5dd0000165ff0b",0,33,1,"diff","same","nz1_77_b.jpg","nz1_77_a.jpg","long","false",0,"","oaAlpha",FALSE,33
"image-keyboard-response",165,358068,"0.0-165.0",100,1,"2022-05-29 22:29:28","01bf73284bfe92835907527684da8ca2","5b9b3977cc5dd0000165ff0b",0,"prolific","","","","","",2165,"nz1_68_a.jpg","g",TRUE,"5b9b3977cc5dd0000165ff0b",0,34,2,"diff","diff","nz1_67_b.jpg","nz1_68_a.jpg","long","false",0,"","oaAlpha",FALSE,34
"image-keyboard-response",169,361161,"0.0-169.0",100,1,"2022-05-29 22:29:28","01bf73284bfe92835907527684da8ca2","5b9b3977cc5dd0000165ff0b",0,"prolific","","","","","",1259,"nz1_12_b.jpg","g",TRUE,"5b9b3977cc5dd0000165ff0b",0,35,1,"same","same","nz1_12_b.jpg","nz1_12_b.jpg","long","true",0,"","oaAlpha",TRUE,35
"image-keyboard-response",173,364532,"0.0-173.0",100,1,"2022-05-29 22:29:28","01bf73284bfe92835907527684da8ca2","5b9b3977cc5dd0000165ff0b",0,"prolific","","","","","",1537,"nz1_65_b.jpg","h",TRUE,"5b9b3977cc5dd0000165ff0b",0,36,2,"diff","diff","nz1_26_a.jpg","nz1_65_b.jpg","long","true",0,"","oaAlpha",TRUE,36
"image-keyboard-response",177,367700,"0.0-177.0",100,1,"2022-05-29 22:29:28","01bf73284bfe92835907527684da8ca2","5b9b3977cc5dd0000165ff0b",0,"prolific","","","","","",1329,"nz1_38_b.jpg","g",TRUE,"5b9b3977cc5dd0000165ff0b",0,37,1,"same","same","nz1_38_b.jpg","nz1_38_b.jpg","long","true",0,"","oaAlpha",TRUE,37
"image-keyboard-response",181,371455,"0.0-181.0",100,1,"2022-05-29 22:29:28","01bf73284bfe92835907527684da8ca2","5b9b3977cc5dd0000165ff0b",0,"prolific","","","","","",1916,"nz1_46_a.jpg","h",TRUE,"5b9b3977cc5dd0000165ff0b",0,38,2,"same","diff","nz1_48_a.jpg","nz1_46_a.jpg","long","true",0,"","oaAlpha",TRUE,38
"image-keyboard-response",185,374447,"0.0-185.0",100,1,"2022-05-29 22:29:28","01bf73284bfe92835907527684da8ca2","5b9b3977cc5dd0000165ff0b",0,"prolific","","","","","",1157,"nz1_6_b.jpg","g",TRUE,"5b9b3977cc5dd0000165ff0b",0,39,1,"same","diff","nz1_6_b.jpg","nz1_6_b.jpg","long","true",0,"","oaAlpha",TRUE,39
"image-keyboard-response",189,379719,"0.0-189.0",100,1,"2022-05-29 22:29:28","01bf73284bfe92835907527684da8ca2","5b9b3977cc5dd0000165ff0b",0,"prolific","","","","","",3430,"nz1_61_b.jpg","g",TRUE,"5b9b3977cc5dd0000165ff0b",0,40,1,"diff","same","nz1_61_a.jpg","nz1_61_b.jpg","long","true",0,"","oaAlpha",TRUE,40
"image-keyboard-response",193,383259,"0.0-193.0",100,1,"2022-05-29 22:29:28","01bf73284bfe92835907527684da8ca2","5b9b3977cc5dd0000165ff0b",0,"prolific","","","","","",1705,"nz1_20_a.jpg","h",TRUE,"5b9b3977cc5dd0000165ff0b",0,41,2,"same","same","nz1_56_a.jpg","nz1_20_a.jpg","long","true",0,"","oaAlpha",TRUE,41
"image-keyboard-response",197,386906,"0.0-197.0",100,1,"2022-05-29 22:29:28","01bf73284bfe92835907527684da8ca2","5b9b3977cc5dd0000165ff0b",0,"prolific","","","","","",1804,"nz1_56_b.jpg","h",TRUE,"5b9b3977cc5dd0000165ff0b",0,42,2,"diff","diff","nz1_20_a.jpg","nz1_56_b.jpg","long","true",0,"","oaAlpha",TRUE,42
"image-keyboard-response",201,389947,"0.0-201.0",100,1,"2022-05-29 22:29:28","01bf73284bfe92835907527684da8ca2","5b9b3977cc5dd0000165ff0b",0,"prolific","","","","","",1195,"nz1_46_b.jpg","g",TRUE,"5b9b3977cc5dd0000165ff0b",0,43,1,"same","same","nz1_46_b.jpg","nz1_46_b.jpg","long","true",0,"","oaAlpha",TRUE,43
"image-keyboard-response",205,394266,"0.0-205.0",100,1,"2022-05-29 22:29:28","01bf73284bfe92835907527684da8ca2","5b9b3977cc5dd0000165ff0b",0,"prolific","","","","","",2476,"nz1_77_b.jpg","g",TRUE,"5b9b3977cc5dd0000165ff0b",0,44,1,"same","diff","nz1_77_b.jpg","nz1_77_b.jpg","long","true",0,"","oaAlpha",TRUE,44
"image-keyboard-response",209,397728,"0.0-209.0",100,1,"2022-05-29 22:29:28","01bf73284bfe92835907527684da8ca2","5b9b3977cc5dd0000165ff0b",0,"prolific","","","","","",1627,"nz1_62_a.jpg","h",TRUE,"5b9b3977cc5dd0000165ff0b",0,45,2,"same","same","nz1_60_a.jpg","nz1_62_a.jpg","long","true",0,"","oaAlpha",TRUE,45
"image-keyboard-response",213,402102,"0.0-213.0",100,1,"2022-05-29 22:29:28","01bf73284bfe92835907527684da8ca2","5b9b3977cc5dd0000165ff0b",0,"prolific","","","","","",2533,"nz1_76_b.jpg","g",TRUE,"5b9b3977cc5dd0000165ff0b",0,46,2,"diff","same","nz1_77_a.jpg","nz1_76_b.jpg","long","false",0,"","oaAlpha",FALSE,46
"image-keyboard-response",217,405090,"0.0-217.0",100,1,"2022-05-29 22:29:28","01bf73284bfe92835907527684da8ca2","5b9b3977cc5dd0000165ff0b",0,"prolific","","","","","",1143,"nz1_32_b.jpg","g",TRUE,"5b9b3977cc5dd0000165ff0b",0,47,1,"diff","diff","nz1_32_a.jpg","nz1_32_b.jpg","long","true",0,"","oaAlpha",TRUE,47
"image-keyboard-response",221,409712,"0.0-221.0",100,1,"2022-05-29 22:29:28","01bf73284bfe92835907527684da8ca2","5b9b3977cc5dd0000165ff0b",0,"prolific","","","","","",2783,"nz1_61_a.jpg","g",TRUE,"5b9b3977cc5dd0000165ff0b",0,48,1,"same","diff","nz1_61_a.jpg","nz1_61_a.jpg","long","true",0,"","oaAlpha",TRUE,48
"image-keyboard-response",225,412839,"0.0-225.0",100,1,"2022-05-29 22:29:28","01bf73284bfe92835907527684da8ca2","5b9b3977cc5dd0000165ff0b",0,"prolific","","","","","",1286,"nz1_54_b.jpg","h",TRUE,"5b9b3977cc5dd0000165ff0b",0,49,2,"same","same","nz1_58_b.jpg","nz1_54_b.jpg","long","true",0,"","oaAlpha",TRUE,49
"image-keyboard-response",229,417074,"0.0-229.0",100,1,"2022-05-29 22:29:28","01bf73284bfe92835907527684da8ca2","5b9b3977cc5dd0000165ff0b",0,"prolific","","","","","",2392,"nz1_65_b.jpg","g",TRUE,"5b9b3977cc5dd0000165ff0b",0,50,1,"diff","diff","nz1_65_a.jpg","nz1_65_b.jpg","long","true",0,"","oaAlpha",TRUE,50
"image-keyboard-response",233,420056,"0.0-233.0",100,1,"2022-05-29 22:29:28","01bf73284bfe92835907527684da8ca2","5b9b3977cc5dd0000165ff0b",0,"prolific","","","","","",1126,"nz1_72_b.jpg","h",TRUE,"5b9b3977cc5dd0000165ff0b",0,51,2,"same","same","nz1_70_b.jpg","nz1_72_b.jpg","long","true",0,"","oaAlpha",TRUE,51
"image-keyboard-response",237,423961,"0.0-237.0",100,1,"2022-05-29 22:29:28","01bf73284bfe92835907527684da8ca2","5b9b3977cc5dd0000165ff0b",0,"prolific","","","","","",2045,"nz1_74_b.jpg","g",TRUE,"5b9b3977cc5dd0000165ff0b",0,52,2,"same","same","nz1_78_b.jpg","nz1_74_b.jpg","long","false",0,"","oaAlpha",FALSE,52
"image-keyboard-response",241,426983,"0.0-241.0",100,1,"2022-05-29 22:29:28","01bf73284bfe92835907527684da8ca2","5b9b3977cc5dd0000165ff0b",0,"prolific","","","","","",1179,"nz1_30_b.jpg","g",TRUE,"5b9b3977cc5dd0000165ff0b",0,53,2,"diff","diff","nz1_66_a.jpg","nz1_30_b.jpg","long","false",0,"","oaAlpha",FALSE,53
"image-keyboard-response",245,430225,"0.0-245.0",100,1,"2022-05-29 22:29:28","01bf73284bfe92835907527684da8ca2","5b9b3977cc5dd0000165ff0b",0,"prolific","","","","","",1393,"nz1_22_a.jpg","g",TRUE,"5b9b3977cc5dd0000165ff0b",0,54,1,"diff","diff","nz1_22_b.jpg","nz1_22_a.jpg","long","true",0,"","oaAlpha",TRUE,54
"image-keyboard-response",249,435182,"0.0-249.0",100,1,"2022-05-29 22:29:28","01bf73284bfe92835907527684da8ca2","5b9b3977cc5dd0000165ff0b",0,"prolific","","","","","",3111,"nz1_4_b.jpg","g",TRUE,"5b9b3977cc5dd0000165ff0b",0,55,1,"same","same","nz1_4_b.jpg","nz1_4_b.jpg","long","true",0,"","oaAlpha",TRUE,55
"image-keyboard-response",253,438449,"0.0-253.0",100,1,"2022-05-29 22:29:28","01bf73284bfe92835907527684da8ca2","5b9b3977cc5dd0000165ff0b",0,"prolific","","","","","",1429,"nz1_32_b.jpg","g",TRUE,"5b9b3977cc5dd0000165ff0b",0,56,1,"same","diff","nz1_32_b.jpg","nz1_32_b.jpg","long","true",0,"","oaAlpha",TRUE,56
"image-keyboard-response",257,441776,"0.0-257.0",100,1,"2022-05-29 22:29:28","01bf73284bfe92835907527684da8ca2","5b9b3977cc5dd0000165ff0b",0,"prolific","","","","","",1480,"nz1_40_b.jpg","h",TRUE,"5b9b3977cc5dd0000165ff0b",0,57,2,"same","same","nz1_44_b.jpg","nz1_40_b.jpg","long","true",0,"","oaAlpha",TRUE,57
"image-keyboard-response",261,446234,"0.0-261.0",100,1,"2022-05-29 22:29:28","01bf73284bfe92835907527684da8ca2","5b9b3977cc5dd0000165ff0b",0,"prolific","","","","","",2602,"nz1_4_a.jpg","g",TRUE,"5b9b3977cc5dd0000165ff0b",0,58,1,"diff","same","nz1_4_b.jpg","nz1_4_a.jpg","long","true",0,"","oaAlpha",TRUE,58
"image-keyboard-response",265,449860,"0.0-265.0",100,1,"2022-05-29 22:29:28","01bf73284bfe92835907527684da8ca2","5b9b3977cc5dd0000165ff0b",0,"prolific","","","","","",1781,"nz1_34_b.jpg","g",TRUE,"5b9b3977cc5dd0000165ff0b",0,59,1,"same","same","nz1_34_b.jpg","nz1_34_b.jpg","long","true",0,"","oaAlpha",TRUE,59
"image-keyboard-response",269,453122,"0.0-269.0",100,1,"2022-05-29 22:29:28","01bf73284bfe92835907527684da8ca2","5b9b3977cc5dd0000165ff0b",0,"prolific","","","","","",1413,"nz1_40_a.jpg","h",TRUE,"5b9b3977cc5dd0000165ff0b",0,60,2,"diff","diff","nz1_44_b.jpg","nz1_40_a.jpg","long","true",0,"","oaAlpha",TRUE,60
"image-keyboard-response",273,459870,"0.0-273.0",100,1,"2022-05-29 22:29:28","01bf73284bfe92835907527684da8ca2","5b9b3977cc5dd0000165ff0b",0,"prolific","","","","","",4893,"nz1_71_b.jpg","g",TRUE,"5b9b3977cc5dd0000165ff0b",0,61,1,"same","same","nz1_71_b.jpg","nz1_71_b.jpg","long","true",0,"","oaAlpha",TRUE,61
"image-keyboard-response",278,470203,"0.0-278.0",100,1,"2022-05-29 22:29:28","01bf73284bfe92835907527684da8ca2","5b9b3977cc5dd0000165ff0b",0,"prolific","","","","","",4440,"nz1_10_a.jpg","h",TRUE,"5b9b3977cc5dd0000165ff0b",0,62,1,"diff","same","nz1_10_b.jpg","nz1_10_a.jpg","long","false",0,"","oaAlpha",FALSE,62
"image-keyboard-response",282,473839,"0.0-282.0",100,1,"2022-05-29 22:29:28","01bf73284bfe92835907527684da8ca2","5b9b3977cc5dd0000165ff0b",0,"prolific","","","","","",1788,"nz1_8_a.jpg","g",TRUE,"5b9b3977cc5dd0000165ff0b",0,63,2,"diff","same","nz1_63_b.jpg","nz1_8_a.jpg","long","false",0,"","oaAlpha",FALSE,63
"image-keyboard-response",286,477555,"0.0-286.0",100,1,"2022-05-29 22:29:28","01bf73284bfe92835907527684da8ca2","5b9b3977cc5dd0000165ff0b",0,"prolific","","","","","",1862,"nz1_68_b.jpg","g",TRUE,"5b9b3977cc5dd0000165ff0b",0,64,2,"diff","same","nz1_67_a.jpg","nz1_68_b.jpg","long","false",0,"","oaAlpha",FALSE,64
"image-keyboard-response",290,481107,"0.0-290.0",100,1,"2022-05-29 22:29:28","01bf73284bfe92835907527684da8ca2","5b9b3977cc5dd0000165ff0b",0,"prolific","","","","","",1689,"nz1_73_b.jpg","h",TRUE,"5b9b3977cc5dd0000165ff0b",0,65,2,"same","diff","nz1_38_b.jpg","nz1_73_b.jpg","long","true",0,"","oaAlpha",TRUE,65
"image-keyboard-response",294,483949,"0.0-294.0",100,1,"2022-05-29 22:29:28","01bf73284bfe92835907527684da8ca2","5b9b3977cc5dd0000165ff0b",0,"prolific","","","","","",978,"nz1_56_b.jpg","h",TRUE,"5b9b3977cc5dd0000165ff0b",0,66,2,"same","diff","nz1_20_b.jpg","nz1_56_b.jpg","long","true",0,"","oaAlpha",TRUE,66
"image-keyboard-response",298,487509,"0.0-298.0",100,1,"2022-05-29 22:29:28","01bf73284bfe92835907527684da8ca2","5b9b3977cc5dd0000165ff0b",0,"prolific","","","","","",1712,"nz1_67_a.jpg","h",TRUE,"5b9b3977cc5dd0000165ff0b",0,67,2,"diff","same","nz1_68_b.jpg","nz1_67_a.jpg","long","true",0,"","oaAlpha",TRUE,67
"image-keyboard-response",302,491256,"0.0-302.0",100,1,"2022-05-29 22:29:28","01bf73284bfe92835907527684da8ca2","5b9b3977cc5dd0000165ff0b",0,"prolific","","","","","",2049,"nz1_22_b.jpg","g",TRUE,"5b9b3977cc5dd0000165ff0b",0,68,1,"same","diff","nz1_22_b.jpg","nz1_22_b.jpg","short","true",0,"","oaAlpha",TRUE,68
"image-keyboard-response",306,494292,"0.0-306.0",100,1,"2022-05-29 22:29:28","01bf73284bfe92835907527684da8ca2","5b9b3977cc5dd0000165ff0b",0,"prolific","","","","","",1335,"nz1_10_a.jpg","g",TRUE,"5b9b3977cc5dd0000165ff0b",0,69,1,"diff","diff","nz1_10_b.jpg","nz1_10_a.jpg","short","true",0,"","oaAlpha",TRUE,69
"image-keyboard-response",310,499335,"0.0-310.0",100,1,"2022-05-29 22:29:28","01bf73284bfe92835907527684da8ca2","5b9b3977cc5dd0000165ff0b",0,"prolific","","","","","",3345,"nz1_60_b.jpg","h",TRUE,"5b9b3977cc5dd0000165ff0b",0,70,2,"same","diff","nz1_62_b.jpg","nz1_60_b.jpg","short","true",0,"","oaAlpha",TRUE,70
"image-keyboard-response",314,503141,"0.0-314.0",100,1,"2022-05-29 22:29:28","01bf73284bfe92835907527684da8ca2","5b9b3977cc5dd0000165ff0b",0,"prolific","","","","","",2095,"nz1_20_b.jpg","h",TRUE,"5b9b3977cc5dd0000165ff0b",0,71,2,"diff","same","nz1_56_a.jpg","nz1_20_b.jpg","short","true",0,"","oaAlpha",TRUE,71
"image-keyboard-response",318,506127,"0.0-318.0",100,1,"2022-05-29 22:29:28","01bf73284bfe92835907527684da8ca2","5b9b3977cc5dd0000165ff0b",0,"prolific","","","","","",1286,"nz1_8_a.jpg","g",TRUE,"5b9b3977cc5dd0000165ff0b",0,72,1,"diff","same","nz1_8_b.jpg","nz1_8_a.jpg","short","true",0,"","oaAlpha",TRUE,72
"image-keyboard-response",322,510207,"0.0-322.0",100,1,"2022-05-29 22:29:28","01bf73284bfe92835907527684da8ca2","5b9b3977cc5dd0000165ff0b",0,"prolific","","","","","",2365,"nz1_75_a.jpg","h",TRUE,"5b9b3977cc5dd0000165ff0b",0,73,2,"diff","same","nz1_12_b.jpg","nz1_75_a.jpg","short","true",0,"","oaAlpha",TRUE,73
"image-keyboard-response",326,515300,"0.0-326.0",100,1,"2022-05-29 22:29:28","01bf73284bfe92835907527684da8ca2","5b9b3977cc5dd0000165ff0b",0,"prolific","","","","","",3391,"nz1_77_a.jpg","g",TRUE,"5b9b3977cc5dd0000165ff0b",0,74,1,"same","same","nz1_77_a.jpg","nz1_77_a.jpg","short","true",0,"","oaAlpha",TRUE,74
"image-keyboard-response",330,518576,"0.0-330.0",100,1,"2022-05-29 22:29:28","01bf73284bfe92835907527684da8ca2","5b9b3977cc5dd0000165ff0b",0,"prolific","","","","","",1569,"nz1_26_a.jpg","h",TRUE,"5b9b3977cc5dd0000165ff0b",0,75,2,"diff","same","nz1_65_b.jpg","nz1_26_a.jpg","short","true",0,"","oaAlpha",TRUE,75
"image-keyboard-response",334,522575,"0.0-334.0",100,1,"2022-05-29 22:29:28","01bf73284bfe92835907527684da8ca2","5b9b3977cc5dd0000165ff0b",0,"prolific","","","","","",2284,"nz1_64_b.jpg","g",TRUE,"5b9b3977cc5dd0000165ff0b",0,76,2,"same","same","nz1_4_b.jpg","nz1_64_b.jpg","short","false",0,"","oaAlpha",FALSE,76
"image-keyboard-response",338,525664,"0.0-338.0",100,1,"2022-05-29 22:29:28","01bf73284bfe92835907527684da8ca2","5b9b3977cc5dd0000165ff0b",0,"prolific","","","","","",1383,"nz1_4_a.jpg","h",TRUE,"5b9b3977cc5dd0000165ff0b",0,77,1,"same","same","nz1_4_a.jpg","nz1_4_a.jpg","short","false",0,"","oaAlpha",FALSE,77
"image-keyboard-response",342,528819,"0.0-342.0",100,1,"2022-05-29 22:29:28","01bf73284bfe92835907527684da8ca2","5b9b3977cc5dd0000165ff0b",0,"prolific","","","","","",1453,"nz1_32_a.jpg","g",TRUE,"5b9b3977cc5dd0000165ff0b",0,78,1,"diff","same","nz1_32_b.jpg","nz1_32_a.jpg","short","true",0,"","oaAlpha",TRUE,78
"image-keyboard-response",346,533652,"0.0-346.0",100,1,"2022-05-29 22:29:28","01bf73284bfe92835907527684da8ca2","5b9b3977cc5dd0000165ff0b",0,"prolific","","","","","",3115,"nz1_63_b.jpg","g",TRUE,"5b9b3977cc5dd0000165ff0b",0,79,1,"diff","same","nz1_63_a.jpg","nz1_63_b.jpg","short","true",0,"","oaAlpha",TRUE,79
"image-keyboard-response",354,541457,"0.0-354.0",100,1,"2022-05-29 22:29:28","01bf73284bfe92835907527684da8ca2","5b9b3977cc5dd0000165ff0b",0,"prolific","","","","","",3186,"nz1_74_a.jpg","g",TRUE,"5b9b3977cc5dd0000165ff0b",0,80,1,"same","same","nz1_74_a.jpg","nz1_74_a.jpg","short","true",0,"","oaAlpha",TRUE,80
"image-keyboard-response",358,544868,"0.0-358.0",100,1,"2022-05-29 22:29:28","01bf73284bfe92835907527684da8ca2","5b9b3977cc5dd0000165ff0b",0,"prolific","","","","","",1709,"nz1_42_a.jpg","h",TRUE,"5b9b3977cc5dd0000165ff0b",0,81,2,"diff","diff","nz1_50_b.jpg","nz1_42_a.jpg","short","true",0,"","oaAlpha",TRUE,81
"image-keyboard-response",362,549392,"0.0-362.0",100,1,"2022-05-29 22:29:28","01bf73284bfe92835907527684da8ca2","5b9b3977cc5dd0000165ff0b",0,"prolific","","","","","",2810,"nz1_18_a.jpg","h",TRUE,"5b9b3977cc5dd0000165ff0b",0,82,1,"diff","diff","nz1_18_b.jpg","nz1_18_a.jpg","short","false",0,"","oaAlpha",FALSE,82
"image-keyboard-response",366,552099,"0.0-366.0",100,1,"2022-05-29 22:29:28","01bf73284bfe92835907527684da8ca2","5b9b3977cc5dd0000165ff0b",0,"prolific","","","","","",997,"nz1_50_a.jpg","g",TRUE,"5b9b3977cc5dd0000165ff0b",0,83,1,"same","diff","nz1_50_a.jpg","nz1_50_a.jpg","short","true",0,"","oaAlpha",TRUE,83
"image-keyboard-response",370,555850,"0.0-370.0",100,1,"2022-05-29 22:29:28","01bf73284bfe92835907527684da8ca2","5b9b3977cc5dd0000165ff0b",0,"prolific","","","","","",2033,"nz1_30_a.jpg","h",TRUE,"5b9b3977cc5dd0000165ff0b",0,84,1,"diff","diff","nz1_30_b.jpg","nz1_30_a.jpg","short","false",0,"","oaAlpha",FALSE,84
"image-keyboard-response",374,559062,"0.0-374.0",100,1,"2022-05-29 22:29:28","01bf73284bfe92835907527684da8ca2","5b9b3977cc5dd0000165ff0b",0,"prolific","","","","","",1494,"nz1_70_a.jpg","g",TRUE,"5b9b3977cc5dd0000165ff0b",0,85,2,"diff","same","nz1_72_b.jpg","nz1_70_a.jpg","short","false",0,"","oaAlpha",FALSE,85
"image-keyboard-response",378,564061,"0.0-378.0",100,1,"2022-05-29 22:29:28","01bf73284bfe92835907527684da8ca2","5b9b3977cc5dd0000165ff0b",0,"prolific","","","","","",3283,"nz1_24_b.jpg","g",TRUE,"5b9b3977cc5dd0000165ff0b",0,86,1,"same","same","nz1_24_b.jpg","nz1_24_b.jpg","short","true",0,"","oaAlpha",TRUE,86
"image-keyboard-response",382,570427,"0.0-382.0",100,1,"2022-05-29 22:29:28","01bf73284bfe92835907527684da8ca2","5b9b3977cc5dd0000165ff0b",0,"prolific","","","","","",4655,"nz1_22_b.jpg","h",TRUE,"5b9b3977cc5dd0000165ff0b",0,87,1,"diff","diff","nz1_22_a.jpg","nz1_22_b.jpg","short","false",0,"","oaAlpha",FALSE,87
"image-keyboard-response",386,576667,"0.0-386.0",100,1,"2022-05-29 22:29:28","01bf73284bfe92835907527684da8ca2","5b9b3977cc5dd0000165ff0b",0,"prolific","","","","","",4535,"nz1_36_a.jpg","g",TRUE,"5b9b3977cc5dd0000165ff0b",0,88,2,"diff","diff","nz1_28_b.jpg","nz1_36_a.jpg","short","false",0,"","oaAlpha",FALSE,88
"image-keyboard-response",390,579449,"0.0-390.0",100,1,"2022-05-29 22:29:28","01bf73284bfe92835907527684da8ca2","5b9b3977cc5dd0000165ff0b",0,"prolific","","","","","",1076,"nz1_44_b.jpg","h",TRUE,"5b9b3977cc5dd0000165ff0b",0,89,2,"same","diff","nz1_40_b.jpg","nz1_44_b.jpg","short","true",0,"","oaAlpha",TRUE,89
"image-keyboard-response",394,584102,"0.0-394.0",100,1,"2022-05-29 22:29:28","01bf73284bfe92835907527684da8ca2","5b9b3977cc5dd0000165ff0b",0,"prolific","","","","","",2938,"nz1_77_a.jpg","h",TRUE,"5b9b3977cc5dd0000165ff0b",0,90,1,"diff","same","nz1_77_b.jpg","nz1_77_a.jpg","short","false",0,"","oaAlpha",FALSE,90
"image-keyboard-response",398,587593,"0.0-398.0",100,1,"2022-05-29 22:29:28","01bf73284bfe92835907527684da8ca2","5b9b3977cc5dd0000165ff0b",0,"prolific","","","","","",1779,"nz1_62_a.jpg","g",TRUE,"5b9b3977cc5dd0000165ff0b",0,91,1,"same","diff","nz1_62_a.jpg","nz1_62_a.jpg","short","true",0,"","oaAlpha",TRUE,91
"image-keyboard-response",402,590774,"0.0-402.0",100,1,"2022-05-29 22:29:28","01bf73284bfe92835907527684da8ca2","5b9b3977cc5dd0000165ff0b",0,"prolific","","","","","",1472,"nz1_6_b.jpg","h",TRUE,"5b9b3977cc5dd0000165ff0b",0,92,1,"same","diff","nz1_6_b.jpg","nz1_6_b.jpg","short","false",0,"","oaAlpha",FALSE,92
"image-keyboard-response",406,594281,"0.0-406.0",100,1,"2022-05-29 22:29:28","01bf73284bfe92835907527684da8ca2","5b9b3977cc5dd0000165ff0b",0,"prolific","","","","","",1798,"nz1_75_b.jpg","h",TRUE,"5b9b3977cc5dd0000165ff0b",0,93,1,"diff","same","nz1_75_a.jpg","nz1_75_b.jpg","short","false",0,"","oaAlpha",FALSE,93
"image-keyboard-response",410,597607,"0.0-410.0",100,1,"2022-05-29 22:29:28","01bf73284bfe92835907527684da8ca2","5b9b3977cc5dd0000165ff0b",0,"prolific","","","","","",1610,"nz1_20_b.jpg","g",TRUE,"5b9b3977cc5dd0000165ff0b",0,94,1,"same","diff","nz1_20_b.jpg","nz1_20_b.jpg","short","true",0,"","oaAlpha",TRUE,94
"image-keyboard-response",414,600550,"0.0-414.0",100,1,"2022-05-29 22:29:28","01bf73284bfe92835907527684da8ca2","5b9b3977cc5dd0000165ff0b",0,"prolific","","","","","",1238,"nz1_79_b.jpg","g",TRUE,"5b9b3977cc5dd0000165ff0b",0,95,1,"diff","diff","nz1_79_a.jpg","nz1_79_b.jpg","short","true",0,"","oaAlpha",TRUE,95
"image-keyboard-response",418,604545,"0.0-418.0",100,1,"2022-05-29 22:29:28","01bf73284bfe92835907527684da8ca2","5b9b3977cc5dd0000165ff0b",0,"prolific","","","","","",2275,"nz1_71_a.jpg","h",TRUE,"5b9b3977cc5dd0000165ff0b",0,96,1,"diff","same","nz1_71_b.jpg","nz1_71_a.jpg","short","false",0,"","oaAlpha",FALSE,96
"image-keyboard-response",422,608479,"0.0-422.0",100,1,"2022-05-29 22:29:28","01bf73284bfe92835907527684da8ca2","5b9b3977cc5dd0000165ff0b",0,"prolific","","","","","",2212,"nz1_75_b.jpg","h",TRUE,"5b9b3977cc5dd0000165ff0b",0,97,2,"same","diff","nz1_12_b.jpg","nz1_75_b.jpg","short","true",0,"","oaAlpha",TRUE,97
"image-keyboard-response",426,611277,"0.0-426.0",100,1,"2022-05-29 22:29:28","01bf73284bfe92835907527684da8ca2","5b9b3977cc5dd0000165ff0b",0,"prolific","","","","","",1087,"nz1_62_b.jpg","h",TRUE,"5b9b3977cc5dd0000165ff0b",0,98,2,"same","same","nz1_60_b.jpg","nz1_62_b.jpg","short","true",0,"","oaAlpha",TRUE,98
"image-keyboard-response",430,613975,"0.0-430.0",100,1,"2022-05-29 22:29:28","01bf73284bfe92835907527684da8ca2","5b9b3977cc5dd0000165ff0b",0,"prolific","","","","","",983,"nz1_18_b.jpg","g",TRUE,"5b9b3977cc5dd0000165ff0b",0,99,1,"diff","same","nz1_18_a.jpg","nz1_18_b.jpg","short","true",0,"","oaAlpha",TRUE,99
"image-keyboard-response",434,616742,"0.0-434.0",100,1,"2022-05-29 22:29:28","01bf73284bfe92835907527684da8ca2","5b9b3977cc5dd0000165ff0b",0,"prolific","","","","","",1047,"nz1_50_b.jpg","h",TRUE,"5b9b3977cc5dd0000165ff0b",0,100,2,"same","same","nz1_42_b.jpg","nz1_50_b.jpg","short","true",0,"","oaAlpha",TRUE,100
"image-keyboard-response",438,619911,"0.0-438.0",100,1,"2022-05-29 22:29:28","01bf73284bfe92835907527684da8ca2","5b9b3977cc5dd0000165ff0b",0,"prolific","","","","","",1457,"nz1_6_b.jpg","h",TRUE,"5b9b3977cc5dd0000165ff0b",0,101,1,"same","diff","nz1_6_b.jpg","nz1_6_b.jpg","short","false",0,"","oaAlpha",FALSE,101
"image-keyboard-response",442,627416,"0.0-442.0",100,1,"2022-05-29 22:29:28","01bf73284bfe92835907527684da8ca2","5b9b3977cc5dd0000165ff0b",0,"prolific","","","","","",5787,"nz1_52_b.jpg","g",TRUE,"5b9b3977cc5dd0000165ff0b",0,102,1,"diff","same","nz1_52_a.jpg","nz1_52_b.jpg","short","true",0,"","oaAlpha",TRUE,102
"image-keyboard-response",446,630663,"0.0-446.0",100,1,"2022-05-29 22:29:28","01bf73284bfe92835907527684da8ca2","5b9b3977cc5dd0000165ff0b",0,"prolific","","","","","",1528,"nz1_6_a.jpg","g",TRUE,"5b9b3977cc5dd0000165ff0b",0,103,2,"same","same","nz1_2_a.jpg","nz1_6_a.jpg","short","false",0,"","oaAlpha",FALSE,103
"image-keyboard-response",450,635106,"0.0-450.0",100,1,"2022-05-29 22:29:28","01bf73284bfe92835907527684da8ca2","5b9b3977cc5dd0000165ff0b",0,"prolific","","","","","",2735,"nz1_34_b.jpg","g",TRUE,"5b9b3977cc5dd0000165ff0b",0,104,1,"same","same","nz1_34_b.jpg","nz1_34_b.jpg","short","true",0,"","oaAlpha",TRUE,104
"image-keyboard-response",454,637894,"0.0-454.0",100,1,"2022-05-29 22:29:28","01bf73284bfe92835907527684da8ca2","5b9b3977cc5dd0000165ff0b",0,"prolific","","","","","",1065,"nz1_63_a.jpg","h",TRUE,"5b9b3977cc5dd0000165ff0b",0,105,2,"diff","diff","nz1_8_b.jpg","nz1_63_a.jpg","short","true",0,"","oaAlpha",TRUE,105
"image-keyboard-response",458,640623,"0.0-458.0",100,1,"2022-05-29 22:29:28","01bf73284bfe92835907527684da8ca2","5b9b3977cc5dd0000165ff0b",0,"prolific","","","","","",1018,"nz1_26_a.jpg","g",TRUE,"5b9b3977cc5dd0000165ff0b",0,106,1,"same","diff","nz1_26_a.jpg","nz1_26_a.jpg","short","true",0,"","oaAlpha",TRUE,106
"image-keyboard-response",462,643769,"0.0-462.0",100,1,"2022-05-29 22:29:28","01bf73284bfe92835907527684da8ca2","5b9b3977cc5dd0000165ff0b",0,"prolific","","","","","",1434,"nz1_56_b.jpg","h",TRUE,"5b9b3977cc5dd0000165ff0b",0,107,2,"same","diff","nz1_20_b.jpg","nz1_56_b.jpg","short","true",0,"","oaAlpha",TRUE,107
"image-keyboard-response",466,646786,"0.0-466.0",100,1,"2022-05-29 22:29:28","01bf73284bfe92835907527684da8ca2","5b9b3977cc5dd0000165ff0b",0,"prolific","","","","","",1292,"nz1_44_a.jpg","h",TRUE,"5b9b3977cc5dd0000165ff0b",0,108,2,"diff","diff","nz1_40_b.jpg","nz1_44_a.jpg","short","true",0,"","oaAlpha",TRUE,108
"image-keyboard-response",470,650277,"0.0-470.0",100,1,"2022-05-29 22:29:28","01bf73284bfe92835907527684da8ca2","5b9b3977cc5dd0000165ff0b",0,"prolific","","","","","",1775,"nz1_18_b.jpg","h",TRUE,"5b9b3977cc5dd0000165ff0b",0,109,2,"diff","same","nz1_14_a.jpg","nz1_18_b.jpg","short","true",0,"","oaAlpha",TRUE,109
"image-keyboard-response",474,652830,"0.0-474.0",100,1,"2022-05-29 22:29:28","01bf73284bfe92835907527684da8ca2","5b9b3977cc5dd0000165ff0b",0,"prolific","","","","","",825,"nz1_80_a.jpg","g",TRUE,"5b9b3977cc5dd0000165ff0b",0,110,1,"same","same","nz1_80_a.jpg","nz1_80_a.jpg","short","true",0,"","oaAlpha",TRUE,110
"image-keyboard-response",478,656951,"0.0-478.0",100,1,"2022-05-29 22:29:28","01bf73284bfe92835907527684da8ca2","5b9b3977cc5dd0000165ff0b",0,"prolific","","","","","",2407,"nz1_48_a.jpg","h",TRUE,"5b9b3977cc5dd0000165ff0b",0,111,2,"diff","diff","nz1_46_b.jpg","nz1_48_a.jpg","short","true",0,"","oaAlpha",TRUE,111
"image-keyboard-response",482,660018,"0.0-482.0",100,1,"2022-05-29 22:29:28","01bf73284bfe92835907527684da8ca2","5b9b3977cc5dd0000165ff0b",0,"prolific","","","","","",1339,"nz1_42_a.jpg","h",TRUE,"5b9b3977cc5dd0000165ff0b",0,112,1,"diff","diff","nz1_42_b.jpg","nz1_42_a.jpg","short","false",0,"","oaAlpha",FALSE,112
"image-keyboard-response",486,664331,"0.0-486.0",100,1,"2022-05-29 22:29:28","01bf73284bfe92835907527684da8ca2","5b9b3977cc5dd0000165ff0b",0,"prolific","","","","","",2597,"nz1_24_a.jpg","g",TRUE,"5b9b3977cc5dd0000165ff0b",0,113,2,"diff","same","nz1_16_b.jpg","nz1_24_a.jpg","short","false",0,"","oaAlpha",FALSE,113
"image-keyboard-response",490,667065,"0.0-490.0",100,1,"2022-05-29 22:29:28","01bf73284bfe92835907527684da8ca2","5b9b3977cc5dd0000165ff0b",0,"prolific","","","","","",1003,"nz1_32_b.jpg","g",TRUE,"5b9b3977cc5dd0000165ff0b",0,114,1,"same","diff","nz1_32_b.jpg","nz1_32_b.jpg","short","true",0,"","oaAlpha",TRUE,114
"image-keyboard-response",494,669856,"0.0-494.0",100,1,"2022-05-29 22:29:28","01bf73284bfe92835907527684da8ca2","5b9b3977cc5dd0000165ff0b",0,"prolific","","","","","",1066,"nz1_10_a.jpg","h",TRUE,"5b9b3977cc5dd0000165ff0b",0,115,2,"same","diff","nz1_22_b.jpg","nz1_10_a.jpg","short","true",0,"","oaAlpha",TRUE,115
"image-keyboard-response",498,672758,"0.0-498.0",100,1,"2022-05-29 22:29:28","01bf73284bfe92835907527684da8ca2","5b9b3977cc5dd0000165ff0b",0,"prolific","","","","","",1183,"nz1_46_a.jpg","g",TRUE,"5b9b3977cc5dd0000165ff0b",0,116,2,"diff","diff","nz1_48_b.jpg","nz1_46_a.jpg","short","false",0,"","oaAlpha",FALSE,116
"image-keyboard-response",502,676823,"0.0-502.0",100,1,"2022-05-29 22:29:28","01bf73284bfe92835907527684da8ca2","5b9b3977cc5dd0000165ff0b",0,"prolific","","","","","",2355,"nz1_48_b.jpg","g",TRUE,"5b9b3977cc5dd0000165ff0b",0,117,2,"same","diff","nz1_46_b.jpg","nz1_48_b.jpg","short","false",0,"","oaAlpha",FALSE,117
"image-keyboard-response",506,679623,"0.0-506.0",100,1,"2022-05-29 22:29:28","01bf73284bfe92835907527684da8ca2","5b9b3977cc5dd0000165ff0b",0,"prolific","","","","","",1082,"nz1_79_b.jpg","g",TRUE,"5b9b3977cc5dd0000165ff0b",0,118,1,"diff","diff","nz1_79_a.jpg","nz1_79_b.jpg","short","true",0,"","oaAlpha",TRUE,118
"image-keyboard-response",510,682268,"0.0-510.0",100,1,"2022-05-29 22:29:28","01bf73284bfe92835907527684da8ca2","5b9b3977cc5dd0000165ff0b",0,"prolific","","","","","",935,"nz1_70_b.jpg","h",TRUE,"5b9b3977cc5dd0000165ff0b",0,119,2,"diff","diff","nz1_72_a.jpg","nz1_70_b.jpg","short","true",0,"","oaAlpha",TRUE,119
"image-keyboard-response",514,685047,"0.0-514.0",100,1,"2022-05-29 22:29:28","01bf73284bfe92835907527684da8ca2","5b9b3977cc5dd0000165ff0b",0,"prolific","","","","","",1062,"nz1_22_a.jpg","h",TRUE,"5b9b3977cc5dd0000165ff0b",0,120,2,"diff","diff","nz1_10_b.jpg","nz1_22_a.jpg","short","true",0,"","oaAlpha",TRUE,120
"image-keyboard-response",518,688503,"0.0-518.0",100,1,"2022-05-29 22:29:28","01bf73284bfe92835907527684da8ca2","5b9b3977cc5dd0000165ff0b",0,"prolific","","","","","",1737,"nz1_73_a.jpg","h",TRUE,"5b9b3977cc5dd0000165ff0b",0,121,2,"same","same","nz1_38_a.jpg","nz1_73_a.jpg","short","true",0,"","oaAlpha",TRUE,121
"image-keyboard-response",522,691680,"0.0-522.0",100,1,"2022-05-29 22:29:28","01bf73284bfe92835907527684da8ca2","5b9b3977cc5dd0000165ff0b",0,"prolific","","","","","",1462,"nz1_54_b.jpg","h",TRUE,"5b9b3977cc5dd0000165ff0b",0,122,1,"same","diff","nz1_54_b.jpg","nz1_54_b.jpg","short","false",0,"","oaAlpha",FALSE,122
"image-keyboard-response",526,696382,"0.0-526.0",100,1,"2022-05-29 22:29:28","01bf73284bfe92835907527684da8ca2","5b9b3977cc5dd0000165ff0b",0,"prolific","","","","","",2987,"nz1_24_b.jpg","g",TRUE,"5b9b3977cc5dd0000165ff0b",0,123,2,"diff","diff","nz1_16_a.jpg","nz1_24_b.jpg","short","false",0,"","oaAlpha",FALSE,123
"image-keyboard-response",530,701075,"0.0-530.0",100,1,"2022-05-29 22:29:28","01bf73284bfe92835907527684da8ca2","5b9b3977cc5dd0000165ff0b",0,"prolific","","","","","",2981,"nz1_64_b.jpg","h",TRUE,"5b9b3977cc5dd0000165ff0b",0,124,2,"same","same","nz1_4_b.jpg","nz1_64_b.jpg","short","true",0,"","oaAlpha",TRUE,124
"image-keyboard-response",33,463445,"0.0-33.0",103,1,"2022-05-29 22:45:59","01bf73284bfe92835907527684da8ca2","5aad226f811b2000016f6be2",0,"prolific","","","","","",1389,"nz1_66_b.jpg","h",TRUE,"5aad226f811b2000016f6be2",0,1,2,"same","diff","nz1_30_b.jpg","nz1_66_b.jpg","long","true",0,"","oaAlpha",TRUE,1
"image-keyboard-response",37,466030,"0.0-37.0",103,1,"2022-05-29 22:45:59","01bf73284bfe92835907527684da8ca2","5aad226f811b2000016f6be2",0,"prolific","","","","","",761,"nz1_67_a.jpg","h",TRUE,"5aad226f811b2000016f6be2",0,2,2,"diff","same","nz1_68_b.jpg","nz1_67_a.jpg","long","true",0,"","oaAlpha",TRUE,2
"image-keyboard-response",41,468549,"0.0-41.0",103,1,"2022-05-29 22:45:59","01bf73284bfe92835907527684da8ca2","5aad226f811b2000016f6be2",0,"prolific","","","","","",698,"nz1_72_b.jpg","g",TRUE,"5aad226f811b2000016f6be2",0,3,1,"same","same","nz1_72_b.jpg","nz1_72_b.jpg","long","true",0,"","oaAlpha",TRUE,3
"image-keyboard-response",45,470990,"0.0-45.0",103,1,"2022-05-29 22:45:59","01bf73284bfe92835907527684da8ca2","5aad226f811b2000016f6be2",0,"prolific","","","","","",615,"nz1_40_a.jpg","h",TRUE,"5aad226f811b2000016f6be2",0,4,1,"diff","same","nz1_40_b.jpg","nz1_40_a.jpg","long","false",0,"","oaAlpha",FALSE,4
"image-keyboard-response",49,473877,"0.0-49.0",103,1,"2022-05-29 22:45:59","01bf73284bfe92835907527684da8ca2","5aad226f811b2000016f6be2",0,"prolific","","","","","",1063,"nz1_38_b.jpg","h",TRUE,"5aad226f811b2000016f6be2",0,5,2,"diff","diff","nz1_73_a.jpg","nz1_38_b.jpg","long","true",0,"","oaAlpha",TRUE,5
"image-keyboard-response",53,476590,"0.0-53.0",103,1,"2022-05-29 22:45:59","01bf73284bfe92835907527684da8ca2","5aad226f811b2000016f6be2",0,"prolific","","","","","",886,"nz1_48_a.jpg","h",TRUE,"5aad226f811b2000016f6be2",0,6,2,"diff","diff","nz1_46_b.jpg","nz1_48_a.jpg","long","true",0,"","oaAlpha",TRUE,6
"image-keyboard-response",57,479181,"0.0-57.0",103,1,"2022-05-29 22:45:59","01bf73284bfe92835907527684da8ca2","5aad226f811b2000016f6be2",0,"prolific","","","","","",754,"nz1_68_a.jpg","g",TRUE,"5aad226f811b2000016f6be2",0,7,1,"same","diff","nz1_68_a.jpg","nz1_68_a.jpg","long","true",0,"","oaAlpha",TRUE,7
"image-keyboard-response",61,482108,"0.0-61.0",103,1,"2022-05-29 22:45:59","01bf73284bfe92835907527684da8ca2","5aad226f811b2000016f6be2",0,"prolific","","","","","",1099,"nz1_20_a.jpg","g",TRUE,"5aad226f811b2000016f6be2",0,8,2,"diff","same","nz1_56_b.jpg","nz1_20_a.jpg","long","false",0,"","oaAlpha",FALSE,8
"image-keyboard-response",65,484757,"0.0-65.0",103,1,"2022-05-29 22:45:59","01bf73284bfe92835907527684da8ca2","5aad226f811b2000016f6be2",0,"prolific","","","","","",815,"nz1_14_b.jpg","g",TRUE,"5aad226f811b2000016f6be2",0,9,2,"same","diff","nz1_18_b.jpg","nz1_14_b.jpg","long","false",0,"","oaAlpha",FALSE,9
"image-keyboard-response",69,487789,"0.0-69.0",103,1,"2022-05-29 22:45:59","01bf73284bfe92835907527684da8ca2","5aad226f811b2000016f6be2",0,"prolific","","","","","",1201,"nz1_32_a.jpg","h",TRUE,"5aad226f811b2000016f6be2",0,10,2,"same","diff","nz1_34_a.jpg","nz1_32_a.jpg","long","true",0,"","oaAlpha",TRUE,10
"image-keyboard-response",73,490485,"0.0-73.0",103,1,"2022-05-29 22:45:59","01bf73284bfe92835907527684da8ca2","5aad226f811b2000016f6be2",0,"prolific","","","","","",865,"nz1_56_a.jpg","g",TRUE,"5aad226f811b2000016f6be2",0,11,1,"same","diff","nz1_56_a.jpg","nz1_56_a.jpg","long","true",0,"","oaAlpha",TRUE,11
"image-keyboard-response",77,493206,"0.0-77.0",103,1,"2022-05-29 22:45:59","01bf73284bfe92835907527684da8ca2","5aad226f811b2000016f6be2",0,"prolific","","","","","",890,"nz1_24_a.jpg","h",TRUE,"5aad226f811b2000016f6be2",0,12,1,"diff","same","nz1_24_b.jpg","nz1_24_a.jpg","long","false",0,"","oaAlpha",FALSE,12
"image-keyboard-response",81,496222,"0.0-81.0",103,1,"2022-05-29 22:45:59","01bf73284bfe92835907527684da8ca2","5aad226f811b2000016f6be2",0,"prolific","","","","","",1178,"nz1_44_b.jpg","h",TRUE,"5aad226f811b2000016f6be2",0,13,1,"diff","diff","nz1_44_a.jpg","nz1_44_b.jpg","long","false",0,"","oaAlpha",FALSE,13
"image-keyboard-response",85,498765,"0.0-85.0",103,1,"2022-05-29 22:45:59","01bf73284bfe92835907527684da8ca2","5aad226f811b2000016f6be2",0,"prolific","","","","","",708,"nz1_46_a.jpg","g",TRUE,"5aad226f811b2000016f6be2",0,14,1,"diff","same","nz1_46_b.jpg","nz1_46_a.jpg","long","true",0,"","oaAlpha",TRUE,14
"image-keyboard-response",89,501421,"0.0-89.0",103,1,"2022-05-29 22:45:59","01bf73284bfe92835907527684da8ca2","5aad226f811b2000016f6be2",0,"prolific","","","","","",820,"nz1_24_a.jpg","g",TRUE,"5aad226f811b2000016f6be2",0,15,1,"same","same","nz1_24_a.jpg","nz1_24_a.jpg","long","true",0,"","oaAlpha",TRUE,15
"image-keyboard-response",93,504390,"0.0-93.0",103,1,"2022-05-29 22:45:59","01bf73284bfe92835907527684da8ca2","5aad226f811b2000016f6be2",0,"prolific","","","","","",1133,"nz1_67_b.jpg","h",TRUE,"5aad226f811b2000016f6be2",0,16,2,"same","diff","nz1_68_b.jpg","nz1_67_b.jpg","long","true",0,"","oaAlpha",TRUE,16
"image-keyboard-response",97,507021,"0.0-97.0",103,1,"2022-05-29 22:45:59","01bf73284bfe92835907527684da8ca2","5aad226f811b2000016f6be2",0,"prolific","","","","","",783,"nz1_26_b.jpg","h",TRUE,"5aad226f811b2000016f6be2",0,17,2,"diff","same","nz1_65_a.jpg","nz1_26_b.jpg","long","true",0,"","oaAlpha",TRUE,17
"image-keyboard-response",101,509733,"0.0-101.0",103,1,"2022-05-29 22:45:59","01bf73284bfe92835907527684da8ca2","5aad226f811b2000016f6be2",0,"prolific","","","","","",874,"nz1_36_b.jpg","h",TRUE,"5aad226f811b2000016f6be2",0,18,2,"diff","same","nz1_28_a.jpg","nz1_36_b.jpg","long","true",0,"","oaAlpha",TRUE,18
"image-keyboard-response",105,512357,"0.0-105.0",103,1,"2022-05-29 22:45:59","01bf73284bfe92835907527684da8ca2","5aad226f811b2000016f6be2",0,"prolific","","","","","",783,"nz1_36_a.jpg","h",TRUE,"5aad226f811b2000016f6be2",0,19,2,"same","same","nz1_28_a.jpg","nz1_36_a.jpg","long","true",0,"","oaAlpha",TRUE,19
"image-keyboard-response",109,515006,"0.0-109.0",103,1,"2022-05-29 22:45:59","01bf73284bfe92835907527684da8ca2","5aad226f811b2000016f6be2",0,"prolific","","","","","",815,"nz1_70_b.jpg","h",TRUE,"5aad226f811b2000016f6be2",0,20,2,"diff","same","nz1_72_a.jpg","nz1_70_b.jpg","long","true",0,"","oaAlpha",TRUE,20
"image-keyboard-response",113,517573,"0.0-113.0",103,1,"2022-05-29 22:45:59","01bf73284bfe92835907527684da8ca2","5aad226f811b2000016f6be2",0,"prolific","","","","","",722,"nz1_65_b.jpg","g",TRUE,"5aad226f811b2000016f6be2",0,21,2,"same","same","nz1_26_b.jpg","nz1_65_b.jpg","long","false",0,"","oaAlpha",FALSE,21
"image-keyboard-response",117,520725,"0.0-117.0",103,1,"2022-05-29 22:45:59","01bf73284bfe92835907527684da8ca2","5aad226f811b2000016f6be2",0,"prolific","","","","","",1306,"nz1_12_b.jpg","g",TRUE,"5aad226f811b2000016f6be2",0,22,1,"same","same","nz1_12_b.jpg","nz1_12_b.jpg","long","true",0,"","oaAlpha",TRUE,22
"image-keyboard-response",121,523277,"0.0-121.0",103,1,"2022-05-29 22:45:59","01bf73284bfe92835907527684da8ca2","5aad226f811b2000016f6be2",0,"prolific","","","","","",706,"nz1_64_b.jpg","g",TRUE,"5aad226f811b2000016f6be2",0,23,1,"same","same","nz1_64_b.jpg","nz1_64_b.jpg","long","true",0,"","oaAlpha",TRUE,23
"image-keyboard-response",125,525902,"0.0-125.0",103,1,"2022-05-29 22:45:59","01bf73284bfe92835907527684da8ca2","5aad226f811b2000016f6be2",0,"prolific","","","","","",780,"nz1_61_b.jpg","h",TRUE,"5aad226f811b2000016f6be2",0,24,2,"same","same","nz1_71_b.jpg","nz1_61_b.jpg","long","true",0,"","oaAlpha",TRUE,24
"image-keyboard-response",129,528589,"0.0-129.0",103,1,"2022-05-29 22:45:59","01bf73284bfe92835907527684da8ca2","5aad226f811b2000016f6be2",0,"prolific","","","","","",836,"nz1_18_b.jpg","h",TRUE,"5aad226f811b2000016f6be2",0,25,1,"diff","same","nz1_18_a.jpg","nz1_18_b.jpg","long","false",0,"","oaAlpha",FALSE,25
"image-keyboard-response",133,531702,"0.0-133.0",103,1,"2022-05-29 22:45:59","01bf73284bfe92835907527684da8ca2","5aad226f811b2000016f6be2",0,"prolific","","","","","",1262,"nz1_67_b.jpg","h",TRUE,"5aad226f811b2000016f6be2",0,26,1,"diff","same","nz1_67_a.jpg","nz1_67_b.jpg","long","false",0,"","oaAlpha",FALSE,26
"image-keyboard-response",137,534589,"0.0-137.0",103,1,"2022-05-29 22:45:59","01bf73284bfe92835907527684da8ca2","5aad226f811b2000016f6be2",0,"prolific","","","","","",1042,"nz1_76_b.jpg","h",TRUE,"5aad226f811b2000016f6be2",0,27,2,"same","diff","nz1_77_b.jpg","nz1_76_b.jpg","long","true",0,"","oaAlpha",TRUE,27
"image-keyboard-response",141,537172,"0.0-141.0",103,1,"2022-05-29 22:45:59","01bf73284bfe92835907527684da8ca2","5aad226f811b2000016f6be2",0,"prolific","","","","","",720,"nz1_65_b.jpg","g",TRUE,"5aad226f811b2000016f6be2",0,28,1,"same","same","nz1_65_b.jpg","nz1_65_b.jpg","long","true",0,"","oaAlpha",TRUE,28
"image-keyboard-response",145,540046,"0.0-145.0",103,1,"2022-05-29 22:45:59","01bf73284bfe92835907527684da8ca2","5aad226f811b2000016f6be2",0,"prolific","","","","","",1027,"nz1_14_a.jpg","h",TRUE,"5aad226f811b2000016f6be2",0,29,1,"same","same","nz1_14_a.jpg","nz1_14_a.jpg","long","false",0,"","oaAlpha",FALSE,29
"image-keyboard-response",149,543149,"0.0-149.0",103,1,"2022-05-29 22:45:59","01bf73284bfe92835907527684da8ca2","5aad226f811b2000016f6be2",0,"prolific","","","","","",1256,"nz1_67_b.jpg","g",TRUE,"5aad226f811b2000016f6be2",0,30,1,"same","diff","nz1_67_b.jpg","nz1_67_b.jpg","long","true",0,"","oaAlpha",TRUE,30
"image-keyboard-response",153,545670,"0.0-153.0",103,1,"2022-05-29 22:45:59","01bf73284bfe92835907527684da8ca2","5aad226f811b2000016f6be2",0,"prolific","","","","","",670,"nz1_70_b.jpg","h",TRUE,"5aad226f811b2000016f6be2",0,31,2,"same","same","nz1_72_b.jpg","nz1_70_b.jpg","long","true",0,"","oaAlpha",TRUE,31
"image-keyboard-response",157,548422,"0.0-157.0",103,1,"2022-05-29 22:45:59","01bf73284bfe92835907527684da8ca2","5aad226f811b2000016f6be2",0,"prolific","","","","","",899,"nz1_54_b.jpg","h",TRUE,"5aad226f811b2000016f6be2",0,32,2,"diff","same","nz1_58_a.jpg","nz1_54_b.jpg","long","true",0,"","oaAlpha",TRUE,32
"image-keyboard-response",161,551125,"0.0-161.0",103,1,"2022-05-29 22:45:59","01bf73284bfe92835907527684da8ca2","5aad226f811b2000016f6be2",0,"prolific","","","","","",852,"nz1_77_a.jpg","h",TRUE,"5aad226f811b2000016f6be2",0,33,1,"diff","same","nz1_77_b.jpg","nz1_77_a.jpg","long","false",0,"","oaAlpha",FALSE,33
"image-keyboard-response",165,553773,"0.0-165.0",103,1,"2022-05-29 22:45:59","01bf73284bfe92835907527684da8ca2","5aad226f811b2000016f6be2",0,"prolific","","","","","",792,"nz1_68_a.jpg","h",TRUE,"5aad226f811b2000016f6be2",0,34,2,"diff","diff","nz1_67_b.jpg","nz1_68_a.jpg","long","true",0,"","oaAlpha",TRUE,34
"image-keyboard-response",169,556886,"0.0-169.0",103,1,"2022-05-29 22:45:59","01bf73284bfe92835907527684da8ca2","5aad226f811b2000016f6be2",0,"prolific","","","","","",1259,"nz1_12_b.jpg","h",TRUE,"5aad226f811b2000016f6be2",0,35,1,"same","same","nz1_12_b.jpg","nz1_12_b.jpg","long","false",0,"","oaAlpha",FALSE,35
"image-keyboard-response",173,559237,"0.0-173.0",103,1,"2022-05-29 22:45:59","01bf73284bfe92835907527684da8ca2","5aad226f811b2000016f6be2",0,"prolific","","","","","",498,"nz1_65_b.jpg","h",TRUE,"5aad226f811b2000016f6be2",0,36,2,"diff","diff","nz1_26_a.jpg","nz1_65_b.jpg","long","true",0,"","oaAlpha",TRUE,36
"image-keyboard-response",177,561797,"0.0-177.0",103,1,"2022-05-29 22:45:59","01bf73284bfe92835907527684da8ca2","5aad226f811b2000016f6be2",0,"prolific","","","","","",704,"nz1_38_b.jpg","h",TRUE,"5aad226f811b2000016f6be2",0,37,1,"same","same","nz1_38_b.jpg","nz1_38_b.jpg","long","false",0,"","oaAlpha",FALSE,37
"image-keyboard-response",181,564302,"0.0-181.0",103,1,"2022-05-29 22:45:59","01bf73284bfe92835907527684da8ca2","5aad226f811b2000016f6be2",0,"prolific","","","","","",657,"nz1_46_a.jpg","h",TRUE,"5aad226f811b2000016f6be2",0,38,2,"same","diff","nz1_48_a.jpg","nz1_46_a.jpg","long","true",0,"","oaAlpha",TRUE,38
"image-keyboard-response",185,566821,"0.0-185.0",103,1,"2022-05-29 22:45:59","01bf73284bfe92835907527684da8ca2","5aad226f811b2000016f6be2",0,"prolific","","","","","",663,"nz1_6_b.jpg","g",TRUE,"5aad226f811b2000016f6be2",0,39,1,"same","diff","nz1_6_b.jpg","nz1_6_b.jpg","long","true",0,"","oaAlpha",TRUE,39
"image-keyboard-response",189,569397,"0.0-189.0",103,1,"2022-05-29 22:45:59","01bf73284bfe92835907527684da8ca2","5aad226f811b2000016f6be2",0,"prolific","","","","","",719,"nz1_61_b.jpg","h",TRUE,"5aad226f811b2000016f6be2",0,40,1,"diff","same","nz1_61_a.jpg","nz1_61_b.jpg","long","false",0,"","oaAlpha",FALSE,40
"image-keyboard-response",193,571917,"0.0-193.0",103,1,"2022-05-29 22:45:59","01bf73284bfe92835907527684da8ca2","5aad226f811b2000016f6be2",0,"prolific","","","","","",659,"nz1_20_a.jpg","h",TRUE,"5aad226f811b2000016f6be2",0,41,2,"same","same","nz1_56_a.jpg","nz1_20_a.jpg","long","true",0,"","oaAlpha",TRUE,41
"image-keyboard-response",197,574732,"0.0-197.0",103,1,"2022-05-29 22:45:59","01bf73284bfe92835907527684da8ca2","5aad226f811b2000016f6be2",0,"prolific","","","","","",953,"nz1_56_b.jpg","h",TRUE,"5aad226f811b2000016f6be2",0,42,2,"diff","diff","nz1_20_a.jpg","nz1_56_b.jpg","long","true",0,"","oaAlpha",TRUE,42
"image-keyboard-response",201,578093,"0.0-201.0",103,1,"2022-05-29 22:45:59","01bf73284bfe92835907527684da8ca2","5aad226f811b2000016f6be2",0,"prolific","","","","","",1502,"nz1_46_b.jpg","g",TRUE,"5aad226f811b2000016f6be2",0,43,1,"same","same","nz1_46_b.jpg","nz1_46_b.jpg","long","true",0,"","oaAlpha",TRUE,43
"image-keyboard-response",205,580510,"0.0-205.0",103,1,"2022-05-29 22:45:59","01bf73284bfe92835907527684da8ca2","5aad226f811b2000016f6be2",0,"prolific","","","","","",560,"nz1_77_b.jpg","h",TRUE,"5aad226f811b2000016f6be2",0,44,1,"same","diff","nz1_77_b.jpg","nz1_77_b.jpg","long","false",0,"","oaAlpha",FALSE,44
"image-keyboard-response",209,583205,"0.0-209.0",103,1,"2022-05-29 22:45:59","01bf73284bfe92835907527684da8ca2","5aad226f811b2000016f6be2",0,"prolific","","","","","",834,"nz1_62_a.jpg","h",TRUE,"5aad226f811b2000016f6be2",0,45,2,"same","same","nz1_60_a.jpg","nz1_62_a.jpg","long","true",0,"","oaAlpha",TRUE,45
"image-keyboard-response",213,585725,"0.0-213.0",103,1,"2022-05-29 22:45:59","01bf73284bfe92835907527684da8ca2","5aad226f811b2000016f6be2",0,"prolific","","","","","",658,"nz1_76_b.jpg","h",TRUE,"5aad226f811b2000016f6be2",0,46,2,"diff","same","nz1_77_a.jpg","nz1_76_b.jpg","long","true",0,"","oaAlpha",TRUE,46
"image-keyboard-response",217,588445,"0.0-217.0",103,1,"2022-05-29 22:45:59","01bf73284bfe92835907527684da8ca2","5aad226f811b2000016f6be2",0,"prolific","","","","","",855,"nz1_32_b.jpg","h",TRUE,"5aad226f811b2000016f6be2",0,47,1,"diff","diff","nz1_32_a.jpg","nz1_32_b.jpg","long","false",0,"","oaAlpha",FALSE,47
"image-keyboard-response",221,591214,"0.0-221.0",103,1,"2022-05-29 22:45:59","01bf73284bfe92835907527684da8ca2","5aad226f811b2000016f6be2",0,"prolific","","","","","",906,"nz1_61_a.jpg","g",TRUE,"5aad226f811b2000016f6be2",0,48,1,"same","diff","nz1_61_a.jpg","nz1_61_a.jpg","long","true",0,"","oaAlpha",TRUE,48
"image-keyboard-response",225,593629,"0.0-225.0",103,1,"2022-05-29 22:45:59","01bf73284bfe92835907527684da8ca2","5aad226f811b2000016f6be2",0,"prolific","","","","","",549,"nz1_54_b.jpg","h",TRUE,"5aad226f811b2000016f6be2",0,49,2,"same","same","nz1_58_b.jpg","nz1_54_b.jpg","long","true",0,"","oaAlpha",TRUE,49
"image-keyboard-response",229,596117,"0.0-229.0",103,1,"2022-05-29 22:45:59","01bf73284bfe92835907527684da8ca2","5aad226f811b2000016f6be2",0,"prolific","","","","","",611,"nz1_65_b.jpg","h",TRUE,"5aad226f811b2000016f6be2",0,50,1,"diff","diff","nz1_65_a.jpg","nz1_65_b.jpg","long","false",0,"","oaAlpha",FALSE,50
"image-keyboard-response",233,598981,"0.0-233.0",103,1,"2022-05-29 22:45:59","01bf73284bfe92835907527684da8ca2","5aad226f811b2000016f6be2",0,"prolific","","","","","",995,"nz1_72_b.jpg","h",TRUE,"5aad226f811b2000016f6be2",0,51,2,"same","same","nz1_70_b.jpg","nz1_72_b.jpg","long","true",0,"","oaAlpha",TRUE,51
"image-keyboard-response",237,601926,"0.0-237.0",103,1,"2022-05-29 22:45:59","01bf73284bfe92835907527684da8ca2","5aad226f811b2000016f6be2",0,"prolific","","","","","",1073,"nz1_74_b.jpg","h",TRUE,"5aad226f811b2000016f6be2",0,52,2,"same","same","nz1_78_b.jpg","nz1_74_b.jpg","long","true",0,"","oaAlpha",TRUE,52
"image-keyboard-response",241,604373,"0.0-241.0",103,1,"2022-05-29 22:45:59","01bf73284bfe92835907527684da8ca2","5aad226f811b2000016f6be2",0,"prolific","","","","","",566,"nz1_30_b.jpg","h",TRUE,"5aad226f811b2000016f6be2",0,53,2,"diff","diff","nz1_66_a.jpg","nz1_30_b.jpg","long","true",0,"","oaAlpha",TRUE,53
"image-keyboard-response",245,606853,"0.0-245.0",103,1,"2022-05-29 22:45:59","01bf73284bfe92835907527684da8ca2","5aad226f811b2000016f6be2",0,"prolific","","","","","",607,"nz1_22_a.jpg","h",TRUE,"5aad226f811b2000016f6be2",0,54,1,"diff","diff","nz1_22_b.jpg","nz1_22_a.jpg","long","false",0,"","oaAlpha",FALSE,54
"image-keyboard-response",249,609285,"0.0-249.0",103,1,"2022-05-29 22:45:59","01bf73284bfe92835907527684da8ca2","5aad226f811b2000016f6be2",0,"prolific","","","","","",562,"nz1_4_b.jpg","g",TRUE,"5aad226f811b2000016f6be2",0,55,1,"same","same","nz1_4_b.jpg","nz1_4_b.jpg","long","true",0,"","oaAlpha",TRUE,55
"image-keyboard-response",253,612030,"0.0-253.0",103,1,"2022-05-29 22:45:59","01bf73284bfe92835907527684da8ca2","5aad226f811b2000016f6be2",0,"prolific","","","","","",872,"nz1_32_b.jpg","g",TRUE,"5aad226f811b2000016f6be2",0,56,1,"same","diff","nz1_32_b.jpg","nz1_32_b.jpg","long","true",0,"","oaAlpha",TRUE,56
"image-keyboard-response",257,614501,"0.0-257.0",103,1,"2022-05-29 22:45:59","01bf73284bfe92835907527684da8ca2","5aad226f811b2000016f6be2",0,"prolific","","","","","",595,"nz1_40_b.jpg","h",TRUE,"5aad226f811b2000016f6be2",0,57,2,"same","same","nz1_44_b.jpg","nz1_40_b.jpg","long","true",0,"","oaAlpha",TRUE,57
"image-keyboard-response",261,616893,"0.0-261.0",103,1,"2022-05-29 22:45:59","01bf73284bfe92835907527684da8ca2","5aad226f811b2000016f6be2",0,"prolific","","","","","",516,"nz1_4_a.jpg","h",TRUE,"5aad226f811b2000016f6be2",0,58,1,"diff","same","nz1_4_b.jpg","nz1_4_a.jpg","long","false",0,"","oaAlpha",FALSE,58
"image-keyboard-response",265,619381,"0.0-265.0",103,1,"2022-05-29 22:45:59","01bf73284bfe92835907527684da8ca2","5aad226f811b2000016f6be2",0,"prolific","","","","","",614,"nz1_34_b.jpg","g",TRUE,"5aad226f811b2000016f6be2",0,59,1,"same","same","nz1_34_b.jpg","nz1_34_b.jpg","long","true",0,"","oaAlpha",TRUE,59
"image-keyboard-response",269,622236,"0.0-269.0",103,1,"2022-05-29 22:45:59","01bf73284bfe92835907527684da8ca2","5aad226f811b2000016f6be2",0,"prolific","","","","","",990,"nz1_40_a.jpg","h",TRUE,"5aad226f811b2000016f6be2",0,60,2,"diff","diff","nz1_44_b.jpg","nz1_40_a.jpg","long","true",0,"","oaAlpha",TRUE,60
"image-keyboard-response",273,625276,"0.0-273.0",103,1,"2022-05-29 22:45:59","01bf73284bfe92835907527684da8ca2","5aad226f811b2000016f6be2",0,"prolific","","","","","",1219,"nz1_71_b.jpg","g",TRUE,"5aad226f811b2000016f6be2",0,61,1,"same","same","nz1_71_b.jpg","nz1_71_b.jpg","long","true",0,"","oaAlpha",TRUE,61
"image-keyboard-response",278,633798,"0.0-278.0",103,1,"2022-05-29 22:45:59","01bf73284bfe92835907527684da8ca2","5aad226f811b2000016f6be2",0,"prolific","","","","","",586,"nz1_10_a.jpg","h",TRUE,"5aad226f811b2000016f6be2",0,62,1,"diff","same","nz1_10_b.jpg","nz1_10_a.jpg","long","false",0,"","oaAlpha",FALSE,62
"image-keyboard-response",282,636277,"0.0-282.0",103,1,"2022-05-29 22:45:59","01bf73284bfe92835907527684da8ca2","5aad226f811b2000016f6be2",0,"prolific","","","","","",594,"nz1_8_a.jpg","h",TRUE,"5aad226f811b2000016f6be2",0,63,2,"diff","same","nz1_63_b.jpg","nz1_8_a.jpg","long","true",0,"","oaAlpha",TRUE,63
"image-keyboard-response",286,638605,"0.0-286.0",103,1,"2022-05-29 22:45:59","01bf73284bfe92835907527684da8ca2","5aad226f811b2000016f6be2",0,"prolific","","","","","",446,"nz1_68_b.jpg","h",TRUE,"5aad226f811b2000016f6be2",0,64,2,"diff","same","nz1_67_a.jpg","nz1_68_b.jpg","long","true",0,"","oaAlpha",TRUE,64
"image-keyboard-response",290,640982,"0.0-290.0",103,1,"2022-05-29 22:45:59","01bf73284bfe92835907527684da8ca2","5aad226f811b2000016f6be2",0,"prolific","","","","","",502,"nz1_73_b.jpg","h",TRUE,"5aad226f811b2000016f6be2",0,65,2,"same","diff","nz1_38_b.jpg","nz1_73_b.jpg","long","true",0,"","oaAlpha",TRUE,65
"image-keyboard-response",294,643355,"0.0-294.0",103,1,"2022-05-29 22:45:59","01bf73284bfe92835907527684da8ca2","5aad226f811b2000016f6be2",0,"prolific","","","","","",489,"nz1_56_b.jpg","h",TRUE,"5aad226f811b2000016f6be2",0,66,2,"same","diff","nz1_20_b.jpg","nz1_56_b.jpg","long","true",0,"","oaAlpha",TRUE,66
"image-keyboard-response",298,645790,"0.0-298.0",103,1,"2022-05-29 22:45:59","01bf73284bfe92835907527684da8ca2","5aad226f811b2000016f6be2",0,"prolific","","","","","",560,"nz1_67_a.jpg","h",TRUE,"5aad226f811b2000016f6be2",0,67,2,"diff","same","nz1_68_b.jpg","nz1_67_a.jpg","long","true",0,"","oaAlpha",TRUE,67
"image-keyboard-response",302,648165,"0.0-302.0",103,1,"2022-05-29 22:45:59","01bf73284bfe92835907527684da8ca2","5aad226f811b2000016f6be2",0,"prolific","","","","","",624,"nz1_22_b.jpg","g",TRUE,"5aad226f811b2000016f6be2",0,68,1,"same","diff","nz1_22_b.jpg","nz1_22_b.jpg","short","true",0,"","oaAlpha",TRUE,68
"image-keyboard-response",306,650686,"0.0-306.0",103,1,"2022-05-29 22:45:59","01bf73284bfe92835907527684da8ca2","5aad226f811b2000016f6be2",0,"prolific","","","","","",787,"nz1_10_a.jpg","h",TRUE,"5aad226f811b2000016f6be2",0,69,1,"diff","diff","nz1_10_b.jpg","nz1_10_a.jpg","short","false",0,"","oaAlpha",FALSE,69
"image-keyboard-response",310,653293,"0.0-310.0",103,1,"2022-05-29 22:45:59","01bf73284bfe92835907527684da8ca2","5aad226f811b2000016f6be2",0,"prolific","","","","","",853,"nz1_60_b.jpg","h",TRUE,"5aad226f811b2000016f6be2",0,70,2,"same","diff","nz1_62_b.jpg","nz1_60_b.jpg","short","true",0,"","oaAlpha",TRUE,70
"image-keyboard-response",314,655645,"0.0-314.0",103,1,"2022-05-29 22:45:59","01bf73284bfe92835907527684da8ca2","5aad226f811b2000016f6be2",0,"prolific","","","","","",599,"nz1_20_b.jpg","h",TRUE,"5aad226f811b2000016f6be2",0,71,2,"diff","same","nz1_56_a.jpg","nz1_20_b.jpg","short","true",0,"","oaAlpha",TRUE,71
"image-keyboard-response",318,657982,"0.0-318.0",103,1,"2022-05-29 22:45:59","01bf73284bfe92835907527684da8ca2","5aad226f811b2000016f6be2",0,"prolific","","","","","",605,"nz1_8_a.jpg","g",TRUE,"5aad226f811b2000016f6be2",0,72,1,"diff","same","nz1_8_b.jpg","nz1_8_a.jpg","short","true",0,"","oaAlpha",TRUE,72
"image-keyboard-response",322,660333,"0.0-322.0",103,1,"2022-05-29 22:45:59","01bf73284bfe92835907527684da8ca2","5aad226f811b2000016f6be2",0,"prolific","","","","","",604,"nz1_75_a.jpg","h",TRUE,"5aad226f811b2000016f6be2",0,73,2,"diff","same","nz1_12_b.jpg","nz1_75_a.jpg","short","true",0,"","oaAlpha",TRUE,73
"image-keyboard-response",326,662654,"0.0-326.0",103,1,"2022-05-29 22:45:59","01bf73284bfe92835907527684da8ca2","5aad226f811b2000016f6be2",0,"prolific","","","","","",578,"nz1_77_a.jpg","g",TRUE,"5aad226f811b2000016f6be2",0,74,1,"same","same","nz1_77_a.jpg","nz1_77_a.jpg","short","true",0,"","oaAlpha",TRUE,74
"image-keyboard-response",330,664925,"0.0-330.0",103,1,"2022-05-29 22:45:59","01bf73284bfe92835907527684da8ca2","5aad226f811b2000016f6be2",0,"prolific","","","","","",532,"nz1_26_a.jpg","h",TRUE,"5aad226f811b2000016f6be2",0,75,2,"diff","same","nz1_65_b.jpg","nz1_26_a.jpg","short","true",0,"","oaAlpha",TRUE,75
"image-keyboard-response",334,667349,"0.0-334.0",103,1,"2022-05-29 22:45:59","01bf73284bfe92835907527684da8ca2","5aad226f811b2000016f6be2",0,"prolific","","","","","",685,"nz1_64_b.jpg","h",TRUE,"5aad226f811b2000016f6be2",0,76,2,"same","same","nz1_4_b.jpg","nz1_64_b.jpg","short","true",0,"","oaAlpha",TRUE,76
"image-keyboard-response",338,669663,"0.0-338.0",103,1,"2022-05-29 22:45:59","01bf73284bfe92835907527684da8ca2","5aad226f811b2000016f6be2",0,"prolific","","","","","",558,"nz1_4_a.jpg","g",TRUE,"5aad226f811b2000016f6be2",0,77,1,"same","same","nz1_4_a.jpg","nz1_4_a.jpg","short","true",0,"","oaAlpha",TRUE,77
"image-keyboard-response",342,672237,"0.0-342.0",103,1,"2022-05-29 22:45:59","01bf73284bfe92835907527684da8ca2","5aad226f811b2000016f6be2",0,"prolific","","","","","",825,"nz1_32_a.jpg","h",TRUE,"5aad226f811b2000016f6be2",0,78,1,"diff","same","nz1_32_b.jpg","nz1_32_a.jpg","short","false",0,"","oaAlpha",FALSE,78
"image-keyboard-response",346,674837,"0.0-346.0",103,1,"2022-05-29 22:45:59","01bf73284bfe92835907527684da8ca2","5aad226f811b2000016f6be2",0,"prolific","","","","","",850,"nz1_63_b.jpg","h",TRUE,"5aad226f811b2000016f6be2",0,79,1,"diff","same","nz1_63_a.jpg","nz1_63_b.jpg","short","false",0,"","oaAlpha",FALSE,79
"image-keyboard-response",354,679893,"0.0-354.0",103,1,"2022-05-29 22:45:59","01bf73284bfe92835907527684da8ca2","5aad226f811b2000016f6be2",0,"prolific","","","","","",746,"nz1_74_a.jpg","g",TRUE,"5aad226f811b2000016f6be2",0,80,1,"same","same","nz1_74_a.jpg","nz1_74_a.jpg","short","true",0,"","oaAlpha",TRUE,80
"image-keyboard-response",358,682245,"0.0-358.0",103,1,"2022-05-29 22:45:59","01bf73284bfe92835907527684da8ca2","5aad226f811b2000016f6be2",0,"prolific","","","","","",616,"nz1_42_a.jpg","h",TRUE,"5aad226f811b2000016f6be2",0,81,2,"diff","diff","nz1_50_b.jpg","nz1_42_a.jpg","short","true",0,"","oaAlpha",TRUE,81
"image-keyboard-response",362,684814,"0.0-362.0",103,1,"2022-05-29 22:45:59","01bf73284bfe92835907527684da8ca2","5aad226f811b2000016f6be2",0,"prolific","","","","","",813,"nz1_18_a.jpg","h",TRUE,"5aad226f811b2000016f6be2",0,82,1,"diff","diff","nz1_18_b.jpg","nz1_18_a.jpg","short","false",0,"","oaAlpha",FALSE,82
"image-keyboard-response",366,687142,"0.0-366.0",103,1,"2022-05-29 22:45:59","01bf73284bfe92835907527684da8ca2","5aad226f811b2000016f6be2",0,"prolific","","","","","",577,"nz1_50_a.jpg","h",TRUE,"5aad226f811b2000016f6be2",0,83,1,"same","diff","nz1_50_a.jpg","nz1_50_a.jpg","short","false",0,"","oaAlpha",FALSE,83
"image-keyboard-response",370,689605,"0.0-370.0",103,1,"2022-05-29 22:45:59","01bf73284bfe92835907527684da8ca2","5aad226f811b2000016f6be2",0,"prolific","","","","","",706,"nz1_30_a.jpg","h",TRUE,"5aad226f811b2000016f6be2",0,84,1,"diff","diff","nz1_30_b.jpg","nz1_30_a.jpg","short","false",0,"","oaAlpha",FALSE,84
"image-keyboard-response",374,691670,"0.0-374.0",103,1,"2022-05-29 22:45:59","01bf73284bfe92835907527684da8ca2","5aad226f811b2000016f6be2",0,"prolific","","","","","",311,"nz1_70_a.jpg","h",TRUE,"5aad226f811b2000016f6be2",0,85,2,"diff","same","nz1_72_b.jpg","nz1_70_a.jpg","short","true",0,"","oaAlpha",TRUE,85
"image-keyboard-response",378,693733,"0.0-378.0",103,1,"2022-05-29 22:45:59","01bf73284bfe92835907527684da8ca2","5aad226f811b2000016f6be2",0,"prolific","","","","","",291,"nz1_24_b.jpg","h",TRUE,"5aad226f811b2000016f6be2",0,86,1,"same","same","nz1_24_b.jpg","nz1_24_b.jpg","short","false",0,"","oaAlpha",FALSE,86
"image-keyboard-response",382,695797,"0.0-382.0",103,1,"2022-05-29 22:45:59","01bf73284bfe92835907527684da8ca2","5aad226f811b2000016f6be2",0,"prolific","","","","","",314,"nz1_22_b.jpg","h",TRUE,"5aad226f811b2000016f6be2",0,87,1,"diff","diff","nz1_22_a.jpg","nz1_22_b.jpg","short","false",0,"","oaAlpha",FALSE,87
"image-keyboard-response",386,697862,"0.0-386.0",103,1,"2022-05-29 22:45:59","01bf73284bfe92835907527684da8ca2","5aad226f811b2000016f6be2",0,"prolific","","","","","",316,"nz1_36_a.jpg","h",TRUE,"5aad226f811b2000016f6be2",0,88,2,"diff","diff","nz1_28_b.jpg","nz1_36_a.jpg","short","true",0,"","oaAlpha",TRUE,88
"image-keyboard-response",390,700030,"0.0-390.0",103,1,"2022-05-29 22:45:59","01bf73284bfe92835907527684da8ca2","5aad226f811b2000016f6be2",0,"prolific","","","","","",408,"nz1_44_b.jpg","h",TRUE,"5aad226f811b2000016f6be2",0,89,2,"same","diff","nz1_40_b.jpg","nz1_44_b.jpg","short","true",0,"","oaAlpha",TRUE,89
"image-keyboard-response",394,702492,"0.0-394.0",103,1,"2022-05-29 22:45:59","01bf73284bfe92835907527684da8ca2","5aad226f811b2000016f6be2",0,"prolific","","","","","",710,"nz1_77_a.jpg","h",TRUE,"5aad226f811b2000016f6be2",0,90,1,"diff","same","nz1_77_b.jpg","nz1_77_a.jpg","short","false",0,"","oaAlpha",FALSE,90
"image-keyboard-response",398,704845,"0.0-398.0",103,1,"2022-05-29 22:45:59","01bf73284bfe92835907527684da8ca2","5aad226f811b2000016f6be2",0,"prolific","","","","","",601,"nz1_62_a.jpg","g",TRUE,"5aad226f811b2000016f6be2",0,91,1,"same","diff","nz1_62_a.jpg","nz1_62_a.jpg","short","true",0,"","oaAlpha",TRUE,91
"image-keyboard-response",402,707309,"0.0-402.0",103,1,"2022-05-29 22:45:59","01bf73284bfe92835907527684da8ca2","5aad226f811b2000016f6be2",0,"prolific","","","","","",704,"nz1_6_b.jpg","h",TRUE,"5aad226f811b2000016f6be2",0,92,1,"same","diff","nz1_6_b.jpg","nz1_6_b.jpg","short","false",0,"","oaAlpha",FALSE,92
"image-keyboard-response",406,709973,"0.0-406.0",103,1,"2022-05-29 22:45:59","01bf73284bfe92835907527684da8ca2","5aad226f811b2000016f6be2",0,"prolific","","","","","",898,"nz1_75_b.jpg","h",TRUE,"5aad226f811b2000016f6be2",0,93,1,"diff","same","nz1_75_a.jpg","nz1_75_b.jpg","short","false",0,"","oaAlpha",FALSE,93
"image-keyboard-response",410,712631,"0.0-410.0",103,1,"2022-05-29 22:45:59","01bf73284bfe92835907527684da8ca2","5aad226f811b2000016f6be2",0,"prolific","","","","","",891,"nz1_20_b.jpg","h",TRUE,"5aad226f811b2000016f6be2",0,94,1,"same","diff","nz1_20_b.jpg","nz1_20_b.jpg","short","false",0,"","oaAlpha",FALSE,94
"image-keyboard-response",414,715005,"0.0-414.0",103,1,"2022-05-29 22:45:59","01bf73284bfe92835907527684da8ca2","5aad226f811b2000016f6be2",0,"prolific","","","","","",615,"nz1_79_b.jpg","h",TRUE,"5aad226f811b2000016f6be2",0,95,1,"diff","diff","nz1_79_a.jpg","nz1_79_b.jpg","short","false",0,"","oaAlpha",FALSE,95
"image-keyboard-response",418,717430,"0.0-418.0",103,1,"2022-05-29 22:45:59","01bf73284bfe92835907527684da8ca2","5aad226f811b2000016f6be2",0,"prolific","","","","","",657,"nz1_71_a.jpg","h",TRUE,"5aad226f811b2000016f6be2",0,96,1,"diff","same","nz1_71_b.jpg","nz1_71_a.jpg","short","false",0,"","oaAlpha",FALSE,96
"image-keyboard-response",422,719885,"0.0-422.0",103,1,"2022-05-29 22:45:59","01bf73284bfe92835907527684da8ca2","5aad226f811b2000016f6be2",0,"prolific","","","","","",720,"nz1_75_b.jpg","g",TRUE,"5aad226f811b2000016f6be2",0,97,2,"same","diff","nz1_12_b.jpg","nz1_75_b.jpg","short","false",0,"","oaAlpha",FALSE,97
"image-keyboard-response",426,722421,"0.0-426.0",103,1,"2022-05-29 22:45:59","01bf73284bfe92835907527684da8ca2","5aad226f811b2000016f6be2",0,"prolific","","","","","",770,"nz1_62_b.jpg","h",TRUE,"5aad226f811b2000016f6be2",0,98,2,"same","same","nz1_60_b.jpg","nz1_62_b.jpg","short","true",0,"","oaAlpha",TRUE,98
"image-keyboard-response",430,724800,"0.0-430.0",103,1,"2022-05-29 22:45:59","01bf73284bfe92835907527684da8ca2","5aad226f811b2000016f6be2",0,"prolific","","","","","",615,"nz1_18_b.jpg","h",TRUE,"5aad226f811b2000016f6be2",0,99,1,"diff","same","nz1_18_a.jpg","nz1_18_b.jpg","short","false",0,"","oaAlpha",FALSE,99
"image-keyboard-response",434,727565,"0.0-434.0",103,1,"2022-05-29 22:45:59","01bf73284bfe92835907527684da8ca2","5aad226f811b2000016f6be2",0,"prolific","","","","","",992,"nz1_50_b.jpg","h",TRUE,"5aad226f811b2000016f6be2",0,100,2,"same","same","nz1_42_b.jpg","nz1_50_b.jpg","short","true",0,"","oaAlpha",TRUE,100
"image-keyboard-response",438,730277,"0.0-438.0",103,1,"2022-05-29 22:45:59","01bf73284bfe92835907527684da8ca2","5aad226f811b2000016f6be2",0,"prolific","","","","","",942,"nz1_6_b.jpg","h",TRUE,"5aad226f811b2000016f6be2",0,101,1,"same","diff","nz1_6_b.jpg","nz1_6_b.jpg","short","false",0,"","oaAlpha",FALSE,101
"image-keyboard-response",442,732438,"0.0-442.0",103,1,"2022-05-29 22:45:59","01bf73284bfe92835907527684da8ca2","5aad226f811b2000016f6be2",0,"prolific","","","","","",394,"nz1_52_b.jpg","h",TRUE,"5aad226f811b2000016f6be2",0,102,1,"diff","same","nz1_52_a.jpg","nz1_52_b.jpg","short","false",0,"","oaAlpha",FALSE,102
"image-keyboard-response",446,735150,"0.0-446.0",103,1,"2022-05-29 22:45:59","01bf73284bfe92835907527684da8ca2","5aad226f811b2000016f6be2",0,"prolific","","","","","",935,"nz1_6_a.jpg","g",TRUE,"5aad226f811b2000016f6be2",0,103,2,"same","same","nz1_2_a.jpg","nz1_6_a.jpg","short","false",0,"","oaAlpha",FALSE,103
"image-keyboard-response",450,737309,"0.0-450.0",103,1,"2022-05-29 22:45:59","01bf73284bfe92835907527684da8ca2","5aad226f811b2000016f6be2",0,"prolific","","","","","",377,"nz1_34_b.jpg","h",TRUE,"5aad226f811b2000016f6be2",0,104,1,"same","same","nz1_34_b.jpg","nz1_34_b.jpg","short","false",0,"","oaAlpha",FALSE,104
"image-keyboard-response",454,739477,"0.0-454.0",103,1,"2022-05-29 22:45:59","01bf73284bfe92835907527684da8ca2","5aad226f811b2000016f6be2",0,"prolific","","","","","",391,"nz1_63_a.jpg","h",TRUE,"5aad226f811b2000016f6be2",0,105,2,"diff","diff","nz1_8_b.jpg","nz1_63_a.jpg","short","true",0,"","oaAlpha",TRUE,105
"image-keyboard-response",458,741765,"0.0-458.0",103,1,"2022-05-29 22:45:59","01bf73284bfe92835907527684da8ca2","5aad226f811b2000016f6be2",0,"prolific","","","","","",509,"nz1_26_a.jpg","g",TRUE,"5aad226f811b2000016f6be2",0,106,1,"same","diff","nz1_26_a.jpg","nz1_26_a.jpg","short","true",0,"","oaAlpha",TRUE,106
"image-keyboard-response",462,743997,"0.0-462.0",103,1,"2022-05-29 22:45:59","01bf73284bfe92835907527684da8ca2","5aad226f811b2000016f6be2",0,"prolific","","","","","",465,"nz1_56_b.jpg","h",TRUE,"5aad226f811b2000016f6be2",0,107,2,"same","diff","nz1_20_b.jpg","nz1_56_b.jpg","short","true",0,"","oaAlpha",TRUE,107
"image-keyboard-response",466,746207,"0.0-466.0",103,1,"2022-05-29 22:45:59","01bf73284bfe92835907527684da8ca2","5aad226f811b2000016f6be2",0,"prolific","","","","","",440,"nz1_44_a.jpg","h",TRUE,"5aad226f811b2000016f6be2",0,108,2,"diff","diff","nz1_40_b.jpg","nz1_44_a.jpg","short","true",0,"","oaAlpha",TRUE,108
"image-keyboard-response",470,748366,"0.0-470.0",103,1,"2022-05-29 22:45:59","01bf73284bfe92835907527684da8ca2","5aad226f811b2000016f6be2",0,"prolific","","","","","",382,"nz1_18_b.jpg","h",TRUE,"5aad226f811b2000016f6be2",0,109,2,"diff","same","nz1_14_a.jpg","nz1_18_b.jpg","short","true",0,"","oaAlpha",TRUE,109
"image-keyboard-response",474,750517,"0.0-474.0",103,1,"2022-05-29 22:45:59","01bf73284bfe92835907527684da8ca2","5aad226f811b2000016f6be2",0,"prolific","","","","","",352,"nz1_80_a.jpg","h",TRUE,"5aad226f811b2000016f6be2",0,110,1,"same","same","nz1_80_a.jpg","nz1_80_a.jpg","short","false",0,"","oaAlpha",FALSE,110
"image-keyboard-response",478,752774,"0.0-478.0",103,1,"2022-05-29 22:45:59","01bf73284bfe92835907527684da8ca2","5aad226f811b2000016f6be2",0,"prolific","","","","","",476,"nz1_48_a.jpg","h",TRUE,"5aad226f811b2000016f6be2",0,111,2,"diff","diff","nz1_46_b.jpg","nz1_48_a.jpg","short","true",0,"","oaAlpha",TRUE,111
"image-keyboard-response",482,754877,"0.0-482.0",103,1,"2022-05-29 22:45:59","01bf73284bfe92835907527684da8ca2","5aad226f811b2000016f6be2",0,"prolific","","","","","",325,"nz1_42_a.jpg","h",TRUE,"5aad226f811b2000016f6be2",0,112,1,"diff","diff","nz1_42_b.jpg","nz1_42_a.jpg","short","false",0,"","oaAlpha",FALSE,112
"image-keyboard-response",486,756983,"0.0-486.0",103,1,"2022-05-29 22:45:59","01bf73284bfe92835907527684da8ca2","5aad226f811b2000016f6be2",0,"prolific","","","","","",345,"nz1_24_a.jpg","h",TRUE,"5aad226f811b2000016f6be2",0,113,2,"diff","same","nz1_16_b.jpg","nz1_24_a.jpg","short","true",0,"","oaAlpha",TRUE,113
"image-keyboard-response",490,759412,"0.0-490.0",103,1,"2022-05-29 22:45:59","01bf73284bfe92835907527684da8ca2","5aad226f811b2000016f6be2",0,"prolific","","","","","",647,"nz1_32_b.jpg","g",TRUE,"5aad226f811b2000016f6be2",0,114,1,"same","diff","nz1_32_b.jpg","nz1_32_b.jpg","short","true",0,"","oaAlpha",TRUE,114
"image-keyboard-response",494,761693,"0.0-494.0",103,1,"2022-05-29 22:45:59","01bf73284bfe92835907527684da8ca2","5aad226f811b2000016f6be2",0,"prolific","","","","","",513,"nz1_10_a.jpg","h",TRUE,"5aad226f811b2000016f6be2",0,115,2,"same","diff","nz1_22_b.jpg","nz1_10_a.jpg","short","true",0,"","oaAlpha",TRUE,115
"image-keyboard-response",498,764038,"0.0-498.0",103,1,"2022-05-29 22:45:59","01bf73284bfe92835907527684da8ca2","5aad226f811b2000016f6be2",0,"prolific","","","","","",574,"nz1_46_a.jpg","h",TRUE,"5aad226f811b2000016f6be2",0,116,2,"diff","diff","nz1_48_b.jpg","nz1_46_a.jpg","short","true",0,"","oaAlpha",TRUE,116
"image-keyboard-response",502,766325,"0.0-502.0",103,1,"2022-05-29 22:45:59","01bf73284bfe92835907527684da8ca2","5aad226f811b2000016f6be2",0,"prolific","","","","","",500,"nz1_48_b.jpg","h",TRUE,"5aad226f811b2000016f6be2",0,117,2,"same","diff","nz1_46_b.jpg","nz1_48_b.jpg","short","true",0,"","oaAlpha",TRUE,117
"image-keyboard-response",506,768486,"0.0-506.0",103,1,"2022-05-29 22:45:59","01bf73284bfe92835907527684da8ca2","5aad226f811b2000016f6be2",0,"prolific","","","","","",375,"nz1_79_b.jpg","h",TRUE,"5aad226f811b2000016f6be2",0,118,1,"diff","diff","nz1_79_a.jpg","nz1_79_b.jpg","short","false",0,"","oaAlpha",FALSE,118
"image-keyboard-response",510,770982,"0.0-510.0",103,1,"2022-05-29 22:45:59","01bf73284bfe92835907527684da8ca2","5aad226f811b2000016f6be2",0,"prolific","","","","","",713,"nz1_70_b.jpg","h",TRUE,"5aad226f811b2000016f6be2",0,119,2,"diff","diff","nz1_72_a.jpg","nz1_70_b.jpg","short","true",0,"","oaAlpha",TRUE,119
"image-keyboard-response",514,773349,"0.0-514.0",103,1,"2022-05-29 22:45:59","01bf73284bfe92835907527684da8ca2","5aad226f811b2000016f6be2",0,"prolific","","","","","",586,"nz1_22_a.jpg","h",TRUE,"5aad226f811b2000016f6be2",0,120,2,"diff","diff","nz1_10_b.jpg","nz1_22_a.jpg","short","true",0,"","oaAlpha",TRUE,120
"image-keyboard-response",518,775661,"0.0-518.0",103,1,"2022-05-29 22:45:59","01bf73284bfe92835907527684da8ca2","5aad226f811b2000016f6be2",0,"prolific","","","","","",510,"nz1_73_a.jpg","h",TRUE,"5aad226f811b2000016f6be2",0,121,2,"same","same","nz1_38_a.jpg","nz1_73_a.jpg","short","true",0,"","oaAlpha",TRUE,121
"image-keyboard-response",522,778397,"0.0-522.0",103,1,"2022-05-29 22:45:59","01bf73284bfe92835907527684da8ca2","5aad226f811b2000016f6be2",0,"prolific","","","","","",942,"nz1_54_b.jpg","g",TRUE,"5aad226f811b2000016f6be2",0,122,1,"same","diff","nz1_54_b.jpg","nz1_54_b.jpg","short","true",0,"","oaAlpha",TRUE,122
"image-keyboard-response",526,780718,"0.0-526.0",103,1,"2022-05-29 22:45:59","01bf73284bfe92835907527684da8ca2","5aad226f811b2000016f6be2",0,"prolific","","","","","",543,"nz1_24_b.jpg","h",TRUE,"5aad226f811b2000016f6be2",0,123,2,"diff","diff","nz1_16_a.jpg","nz1_24_b.jpg","short","true",0,"","oaAlpha",TRUE,123
"image-keyboard-response",530,783206,"0.0-530.0",103,1,"2022-05-29 22:45:59","01bf73284bfe92835907527684da8ca2","5aad226f811b2000016f6be2",0,"prolific","","","","","",719,"nz1_64_b.jpg","h",TRUE,"5aad226f811b2000016f6be2",0,124,2,"same","same","nz1_4_b.jpg","nz1_64_b.jpg","short","true",0,"","oaAlpha",TRUE,124
"image-keyboard-response",33,56183,"0.0-33.0",105,1,"2022-05-29 23:11:25","01bf73284bfe92835907527684da8ca2","628fcbcb54e135665d413f3f",1,"prolific","","","","","",929,"nz1_66_b.jpg","g",TRUE,"628fcbcb54e135665d413f3f",0,1,2,"same","diff","nz1_30_b.jpg","nz1_66_b.jpg","long","false",1,"","oaAlpha",FALSE,1
"image-keyboard-response",37,59113,"0.0-37.0",105,1,"2022-05-29 23:11:25","01bf73284bfe92835907527684da8ca2","628fcbcb54e135665d413f3f",1,"prolific","","","","","",1101,"nz1_67_a.jpg","h",TRUE,"628fcbcb54e135665d413f3f",0,2,2,"diff","same","nz1_68_b.jpg","nz1_67_a.jpg","long","true",1,"","oaAlpha",TRUE,2
"image-keyboard-response",41,61914,"0.0-41.0",105,1,"2022-05-29 23:11:25","01bf73284bfe92835907527684da8ca2","628fcbcb54e135665d413f3f",1,"prolific","","","","","",971,"nz1_72_b.jpg","g",TRUE,"628fcbcb54e135665d413f3f",0,3,1,"same","same","nz1_72_b.jpg","nz1_72_b.jpg","long","true",1,"","oaAlpha",TRUE,3
"image-keyboard-response",45,64699,"0.0-45.0",105,1,"2022-05-29 23:11:25","01bf73284bfe92835907527684da8ca2","628fcbcb54e135665d413f3f",1,"prolific","","","","","",955,"nz1_40_a.jpg","h",TRUE,"628fcbcb54e135665d413f3f",0,4,1,"diff","same","nz1_40_b.jpg","nz1_40_a.jpg","long","false",1,"","oaAlpha",FALSE,4
"image-keyboard-response",49,67917,"0.0-49.0",105,1,"2022-05-29 23:11:25","01bf73284bfe92835907527684da8ca2","628fcbcb54e135665d413f3f",1,"prolific","","","","","",1383,"nz1_38_b.jpg","g",TRUE,"628fcbcb54e135665d413f3f",0,5,2,"diff","diff","nz1_73_a.jpg","nz1_38_b.jpg","long","false",1,"","oaAlpha",FALSE,5
"image-keyboard-response",53,70575,"0.0-53.0",105,1,"2022-05-29 23:11:25","01bf73284bfe92835907527684da8ca2","628fcbcb54e135665d413f3f",1,"prolific","","","","","",825,"nz1_48_a.jpg","g",TRUE,"628fcbcb54e135665d413f3f",0,6,2,"diff","diff","nz1_46_b.jpg","nz1_48_a.jpg","long","false",1,"","oaAlpha",FALSE,6
"image-keyboard-response",57,73327,"0.0-57.0",105,1,"2022-05-29 23:11:25","01bf73284bfe92835907527684da8ca2","628fcbcb54e135665d413f3f",1,"prolific","","","","","",915,"nz1_68_a.jpg","g",TRUE,"628fcbcb54e135665d413f3f",0,7,1,"same","diff","nz1_68_a.jpg","nz1_68_a.jpg","long","true",1,"","oaAlpha",TRUE,7
"image-keyboard-response",61,76113,"0.0-61.0",105,1,"2022-05-29 23:11:25","01bf73284bfe92835907527684da8ca2","628fcbcb54e135665d413f3f",1,"prolific","","","","","",949,"nz1_20_a.jpg","h",TRUE,"628fcbcb54e135665d413f3f",0,8,2,"diff","same","nz1_56_b.jpg","nz1_20_a.jpg","long","true",1,"","oaAlpha",TRUE,8
"image-keyboard-response",65,78306,"0.0-65.0",105,1,"2022-05-29 23:11:25","01bf73284bfe92835907527684da8ca2","628fcbcb54e135665d413f3f",1,"prolific","","","","","",355,"nz1_14_b.jpg","g",TRUE,"628fcbcb54e135665d413f3f",0,9,2,"same","diff","nz1_18_b.jpg","nz1_14_b.jpg","long","false",1,"","oaAlpha",FALSE,9
"image-keyboard-response",69,80901,"0.0-69.0",105,1,"2022-05-29 23:11:25","01bf73284bfe92835907527684da8ca2","628fcbcb54e135665d413f3f",1,"prolific","","","","","",756,"nz1_32_a.jpg","g",TRUE,"628fcbcb54e135665d413f3f",0,10,2,"same","diff","nz1_34_a.jpg","nz1_32_a.jpg","long","false",1,"","oaAlpha",FALSE,10
"image-keyboard-response",73,83813,"0.0-73.0",105,1,"2022-05-29 23:11:25","01bf73284bfe92835907527684da8ca2","628fcbcb54e135665d413f3f",1,"prolific","","","","","",1070,"nz1_56_a.jpg","g",TRUE,"628fcbcb54e135665d413f3f",0,11,1,"same","diff","nz1_56_a.jpg","nz1_56_a.jpg","long","true",1,"","oaAlpha",TRUE,11
"image-keyboard-response",77,86278,"0.0-77.0",105,1,"2022-05-29 23:11:25","01bf73284bfe92835907527684da8ca2","628fcbcb54e135665d413f3f",1,"prolific","","","","","",618,"nz1_24_a.jpg","h",TRUE,"628fcbcb54e135665d413f3f",0,12,1,"diff","same","nz1_24_b.jpg","nz1_24_a.jpg","long","false",1,"","oaAlpha",FALSE,12
"image-keyboard-response",81,88359,"0.0-81.0",105,1,"2022-05-29 23:11:25","01bf73284bfe92835907527684da8ca2","628fcbcb54e135665d413f3f",1,"prolific","","","","","",236,"nz1_44_b.jpg","g",TRUE,"628fcbcb54e135665d413f3f",0,13,1,"diff","diff","nz1_44_a.jpg","nz1_44_b.jpg","long","true",1,"","oaAlpha",TRUE,13
"image-keyboard-response",85,91337,"0.0-85.0",105,1,"2022-05-29 23:11:25","01bf73284bfe92835907527684da8ca2","628fcbcb54e135665d413f3f",1,"prolific","","","","","",1128,"nz1_46_a.jpg","g",TRUE,"628fcbcb54e135665d413f3f",0,14,1,"diff","same","nz1_46_b.jpg","nz1_46_a.jpg","long","true",1,"","oaAlpha",TRUE,14
"image-keyboard-response",89,93594,"0.0-89.0",105,1,"2022-05-29 23:11:25","01bf73284bfe92835907527684da8ca2","628fcbcb54e135665d413f3f",1,"prolific","","","","","",414,"nz1_24_a.jpg","g",TRUE,"628fcbcb54e135665d413f3f",0,15,1,"same","same","nz1_24_a.jpg","nz1_24_a.jpg","long","true",1,"","oaAlpha",TRUE,15
"image-keyboard-response",93,95452,"0.0-93.0",105,1,"2022-05-29 23:11:25","01bf73284bfe92835907527684da8ca2","628fcbcb54e135665d413f3f",1,"prolific","","","","","",11,"nz1_67_b.jpg","h",TRUE,"628fcbcb54e135665d413f3f",0,16,2,"same","diff","nz1_68_b.jpg","nz1_67_b.jpg","long","true",1,"","oaAlpha",TRUE,16
"image-keyboard-response",97,98428,"0.0-97.0",105,1,"2022-05-29 23:11:25","01bf73284bfe92835907527684da8ca2","628fcbcb54e135665d413f3f",1,"prolific","","","","","",1127,"nz1_26_b.jpg","h",TRUE,"628fcbcb54e135665d413f3f",0,17,2,"diff","same","nz1_65_a.jpg","nz1_26_b.jpg","long","true",1,"","oaAlpha",TRUE,17
"image-keyboard-response",101,100717,"0.0-101.0",105,1,"2022-05-29 23:11:25","01bf73284bfe92835907527684da8ca2","628fcbcb54e135665d413f3f",1,"prolific","","","","","",440,"nz1_36_b.jpg","g",TRUE,"628fcbcb54e135665d413f3f",0,18,2,"diff","same","nz1_28_a.jpg","nz1_36_b.jpg","long","false",1,"","oaAlpha",FALSE,18
"image-keyboard-response",105,103423,"0.0-105.0",105,1,"2022-05-29 23:11:25","01bf73284bfe92835907527684da8ca2","628fcbcb54e135665d413f3f",1,"prolific","","","","","",858,"nz1_36_a.jpg","g",TRUE,"628fcbcb54e135665d413f3f",0,19,2,"same","same","nz1_28_a.jpg","nz1_36_a.jpg","long","false",1,"","oaAlpha",FALSE,19
"image-keyboard-response",109,105984,"0.0-109.0",105,1,"2022-05-29 23:11:25","01bf73284bfe92835907527684da8ca2","628fcbcb54e135665d413f3f",1,"prolific","","","","","",707,"nz1_70_b.jpg","g",TRUE,"628fcbcb54e135665d413f3f",0,20,2,"diff","same","nz1_72_a.jpg","nz1_70_b.jpg","long","false",1,"","oaAlpha",FALSE,20
"image-keyboard-response",113,108161,"0.0-113.0",105,1,"2022-05-29 23:11:25","01bf73284bfe92835907527684da8ca2","628fcbcb54e135665d413f3f",1,"prolific","","","","","",317,"nz1_65_b.jpg","h",TRUE,"628fcbcb54e135665d413f3f",0,21,2,"same","same","nz1_26_b.jpg","nz1_65_b.jpg","long","true",1,"","oaAlpha",TRUE,21
"image-keyboard-response",117,111010,"0.0-117.0",105,1,"2022-05-29 23:11:25","01bf73284bfe92835907527684da8ca2","628fcbcb54e135665d413f3f",1,"prolific","","","","","",995,"nz1_12_b.jpg","g",TRUE,"628fcbcb54e135665d413f3f",0,22,1,"same","same","nz1_12_b.jpg","nz1_12_b.jpg","long","true",1,"","oaAlpha",TRUE,22
"image-keyboard-response",121,113925,"0.0-121.0",105,1,"2022-05-29 23:11:25","01bf73284bfe92835907527684da8ca2","628fcbcb54e135665d413f3f",1,"prolific","","","","","",1057,"nz1_64_b.jpg","g",TRUE,"628fcbcb54e135665d413f3f",0,23,1,"same","same","nz1_64_b.jpg","nz1_64_b.jpg","long","true",1,"","oaAlpha",TRUE,23
"image-keyboard-response",125,116677,"0.0-125.0",105,1,"2022-05-29 23:11:25","01bf73284bfe92835907527684da8ca2","628fcbcb54e135665d413f3f",1,"prolific","","","","","",893,"nz1_61_b.jpg","g",TRUE,"628fcbcb54e135665d413f3f",0,24,2,"same","same","nz1_71_b.jpg","nz1_61_b.jpg","long","false",1,"","oaAlpha",FALSE,24
"image-keyboard-response",129,119526,"0.0-129.0",105,1,"2022-05-29 23:11:25","01bf73284bfe92835907527684da8ca2","628fcbcb54e135665d413f3f",1,"prolific","","","","","",989,"nz1_18_b.jpg","h",TRUE,"628fcbcb54e135665d413f3f",0,25,1,"diff","same","nz1_18_a.jpg","nz1_18_b.jpg","long","false",1,"","oaAlpha",FALSE,25
"image-keyboard-response",133,122312,"0.0-133.0",105,1,"2022-05-29 23:11:25","01bf73284bfe92835907527684da8ca2","628fcbcb54e135665d413f3f",1,"prolific","","","","","",925,"nz1_67_b.jpg","h",TRUE,"628fcbcb54e135665d413f3f",0,26,1,"diff","same","nz1_67_a.jpg","nz1_67_b.jpg","long","false",1,"","oaAlpha",FALSE,26
"image-keyboard-response",137,124650,"0.0-137.0",105,1,"2022-05-29 23:11:25","01bf73284bfe92835907527684da8ca2","628fcbcb54e135665d413f3f",1,"prolific","","","","","",465,"nz1_76_b.jpg","h",TRUE,"628fcbcb54e135665d413f3f",0,27,2,"same","diff","nz1_77_b.jpg","nz1_76_b.jpg","long","true",1,"","oaAlpha",TRUE,27
"image-keyboard-response",141,126747,"0.0-141.0",105,1,"2022-05-29 23:11:25","01bf73284bfe92835907527684da8ca2","628fcbcb54e135665d413f3f",1,"prolific","","","","","",226,"nz1_65_b.jpg","g",TRUE,"628fcbcb54e135665d413f3f",0,28,1,"same","same","nz1_65_b.jpg","nz1_65_b.jpg","long","true",1,"","oaAlpha",TRUE,28
"image-keyboard-response",145,129196,"0.0-145.0",105,1,"2022-05-29 23:11:25","01bf73284bfe92835907527684da8ca2","628fcbcb54e135665d413f3f",1,"prolific","","","","","",593,"nz1_14_a.jpg","h",TRUE,"628fcbcb54e135665d413f3f",0,29,1,"same","same","nz1_14_a.jpg","nz1_14_a.jpg","long","false",1,"","oaAlpha",FALSE,29
"image-keyboard-response",149,131645,"0.0-149.0",105,1,"2022-05-29 23:11:25","01bf73284bfe92835907527684da8ca2","628fcbcb54e135665d413f3f",1,"prolific","","","","","",574,"nz1_67_b.jpg","g",TRUE,"628fcbcb54e135665d413f3f",0,30,1,"same","diff","nz1_67_b.jpg","nz1_67_b.jpg","long","true",1,"","oaAlpha",TRUE,30
"image-keyboard-response",153,134206,"0.0-153.0",105,1,"2022-05-29 23:11:25","01bf73284bfe92835907527684da8ca2","628fcbcb54e135665d413f3f",1,"prolific","","","","","",688,"nz1_70_b.jpg","h",TRUE,"628fcbcb54e135665d413f3f",0,31,2,"same","same","nz1_72_b.jpg","nz1_70_b.jpg","long","true",1,"","oaAlpha",TRUE,31
"image-keyboard-response",157,136496,"0.0-157.0",105,1,"2022-05-29 23:11:25","01bf73284bfe92835907527684da8ca2","628fcbcb54e135665d413f3f",1,"prolific","","","","","",421,"nz1_54_b.jpg","h",TRUE,"628fcbcb54e135665d413f3f",0,32,2,"diff","same","nz1_58_a.jpg","nz1_54_b.jpg","long","true",1,"","oaAlpha",TRUE,32
"image-keyboard-response",161,139152,"0.0-161.0",105,1,"2022-05-29 23:11:25","01bf73284bfe92835907527684da8ca2","628fcbcb54e135665d413f3f",1,"prolific","","","","","",787,"nz1_77_a.jpg","g",TRUE,"628fcbcb54e135665d413f3f",0,33,1,"diff","same","nz1_77_b.jpg","nz1_77_a.jpg","long","true",1,"","oaAlpha",TRUE,33
"image-keyboard-response",165,141825,"0.0-165.0",105,1,"2022-05-29 23:11:25","01bf73284bfe92835907527684da8ca2","628fcbcb54e135665d413f3f",1,"prolific","","","","","",805,"nz1_68_a.jpg","h",TRUE,"628fcbcb54e135665d413f3f",0,34,2,"diff","diff","nz1_67_b.jpg","nz1_68_a.jpg","long","true",1,"","oaAlpha",TRUE,34
"image-keyboard-response",169,144803,"0.0-169.0",105,1,"2022-05-29 23:11:25","01bf73284bfe92835907527684da8ca2","628fcbcb54e135665d413f3f",1,"prolific","","","","","",1106,"nz1_12_b.jpg","g",TRUE,"628fcbcb54e135665d413f3f",0,35,1,"same","same","nz1_12_b.jpg","nz1_12_b.jpg","long","true",1,"","oaAlpha",TRUE,35
"image-keyboard-response",173,147414,"0.0-173.0",105,1,"2022-05-29 23:11:25","01bf73284bfe92835907527684da8ca2","628fcbcb54e135665d413f3f",1,"prolific","","","","","",733,"nz1_65_b.jpg","h",TRUE,"628fcbcb54e135665d413f3f",0,36,2,"diff","diff","nz1_26_a.jpg","nz1_65_b.jpg","long","true",1,"","oaAlpha",TRUE,36
"image-keyboard-response",177,149957,"0.0-177.0",105,1,"2022-05-29 23:11:25","01bf73284bfe92835907527684da8ca2","628fcbcb54e135665d413f3f",1,"prolific","","","","","",679,"nz1_38_b.jpg","g",TRUE,"628fcbcb54e135665d413f3f",0,37,1,"same","same","nz1_38_b.jpg","nz1_38_b.jpg","long","true",1,"","oaAlpha",TRUE,37
"image-keyboard-response",181,152407,"0.0-181.0",105,1,"2022-05-29 23:11:25","01bf73284bfe92835907527684da8ca2","628fcbcb54e135665d413f3f",1,"prolific","","","","","",576,"nz1_46_a.jpg","h",TRUE,"628fcbcb54e135665d413f3f",0,38,2,"same","diff","nz1_48_a.jpg","nz1_46_a.jpg","long","true",1,"","oaAlpha",TRUE,38
"image-keyboard-response",185,154856,"0.0-185.0",105,1,"2022-05-29 23:11:25","01bf73284bfe92835907527684da8ca2","628fcbcb54e135665d413f3f",1,"prolific","","","","","",566,"nz1_6_b.jpg","h",TRUE,"628fcbcb54e135665d413f3f",0,39,1,"same","diff","nz1_6_b.jpg","nz1_6_b.jpg","long","false",1,"","oaAlpha",FALSE,39
"image-keyboard-response",189,157193,"0.0-189.0",105,1,"2022-05-29 23:11:25","01bf73284bfe92835907527684da8ca2","628fcbcb54e135665d413f3f",1,"prolific","","","","","",455,"nz1_61_b.jpg","h",TRUE,"628fcbcb54e135665d413f3f",0,40,1,"diff","same","nz1_61_a.jpg","nz1_61_b.jpg","long","false",1,"","oaAlpha",FALSE,40
"image-keyboard-response",193,159484,"0.0-193.0",105,1,"2022-05-29 23:11:25","01bf73284bfe92835907527684da8ca2","628fcbcb54e135665d413f3f",1,"prolific","","","","","",412,"nz1_20_a.jpg","g",TRUE,"628fcbcb54e135665d413f3f",0,41,2,"same","same","nz1_56_a.jpg","nz1_20_a.jpg","long","false",1,"","oaAlpha",FALSE,41
"image-keyboard-response",197,161372,"0.0-197.0",105,1,"2022-05-29 23:11:25","01bf73284bfe92835907527684da8ca2","628fcbcb54e135665d413f3f",1,"prolific","","","","","",1,"nz1_56_b.jpg","g",TRUE,"628fcbcb54e135665d413f3f",0,42,2,"diff","diff","nz1_20_a.jpg","nz1_56_b.jpg","long","false",1,"","oaAlpha",FALSE,42
"image-keyboard-response",201,163292,"0.0-201.0",105,1,"2022-05-29 23:11:25","01bf73284bfe92835907527684da8ca2","628fcbcb54e135665d413f3f",1,"prolific","","","","","",35,"nz1_46_b.jpg","h",TRUE,"628fcbcb54e135665d413f3f",0,43,1,"same","same","nz1_46_b.jpg","nz1_46_b.jpg","long","false",1,"","oaAlpha",FALSE,43
"image-keyboard-response",205,165421,"0.0-205.0",105,1,"2022-05-29 23:11:25","01bf73284bfe92835907527684da8ca2","628fcbcb54e135665d413f3f",1,"prolific","","","","","",243,"nz1_77_b.jpg","h",TRUE,"628fcbcb54e135665d413f3f",0,44,1,"same","diff","nz1_77_b.jpg","nz1_77_b.jpg","long","false",1,"","oaAlpha",FALSE,44
"image-keyboard-response",209,167903,"0.0-209.0",105,1,"2022-05-29 23:11:25","01bf73284bfe92835907527684da8ca2","628fcbcb54e135665d413f3f",1,"prolific","","","","","",606,"nz1_62_a.jpg","g",TRUE,"628fcbcb54e135665d413f3f",0,45,2,"same","same","nz1_60_a.jpg","nz1_62_a.jpg","long","false",1,"","oaAlpha",FALSE,45
"image-keyboard-response",213,169888,"0.0-213.0",105,1,"2022-05-29 23:11:25","01bf73284bfe92835907527684da8ca2","628fcbcb54e135665d413f3f",1,"prolific","","","","","",101,"nz1_76_b.jpg","h",TRUE,"628fcbcb54e135665d413f3f",0,46,2,"diff","same","nz1_77_a.jpg","nz1_76_b.jpg","long","true",1,"","oaAlpha",TRUE,46
"image-keyboard-response",217,171840,"0.0-217.0",105,1,"2022-05-29 23:11:25","01bf73284bfe92835907527684da8ca2","628fcbcb54e135665d413f3f",1,"prolific","","","","","",74,"nz1_32_b.jpg","g",TRUE,"628fcbcb54e135665d413f3f",0,47,1,"diff","diff","nz1_32_a.jpg","nz1_32_b.jpg","long","true",1,"","oaAlpha",TRUE,47
"image-keyboard-response",221,173826,"0.0-221.0",105,1,"2022-05-29 23:11:25","01bf73284bfe92835907527684da8ca2","628fcbcb54e135665d413f3f",1,"prolific","","","","","",101,"nz1_61_a.jpg","g",TRUE,"628fcbcb54e135665d413f3f",0,48,1,"same","diff","nz1_61_a.jpg","nz1_61_a.jpg","long","true",1,"","oaAlpha",TRUE,48
"image-keyboard-response",225,175715,"0.0-225.0",105,1,"2022-05-29 23:11:25","01bf73284bfe92835907527684da8ca2","628fcbcb54e135665d413f3f",1,"prolific","","","","","",1,"nz1_54_b.jpg","g",TRUE,"628fcbcb54e135665d413f3f",0,49,2,"same","same","nz1_58_b.jpg","nz1_54_b.jpg","long","false",1,"","oaAlpha",FALSE,49
"image-keyboard-response",229,177614,"0.0-229.0",105,1,"2022-05-29 23:11:25","01bf73284bfe92835907527684da8ca2","628fcbcb54e135665d413f3f",1,"prolific","","","","","",1,"nz1_65_b.jpg","g",TRUE,"628fcbcb54e135665d413f3f",0,50,1,"diff","diff","nz1_65_a.jpg","nz1_65_b.jpg","long","true",1,"","oaAlpha",TRUE,50
"image-keyboard-response",233,179685,"0.0-233.0",105,1,"2022-05-29 23:11:25","01bf73284bfe92835907527684da8ca2","628fcbcb54e135665d413f3f",1,"prolific","","","","","",170,"nz1_72_b.jpg","g",TRUE,"628fcbcb54e135665d413f3f",0,51,2,"same","same","nz1_70_b.jpg","nz1_72_b.jpg","long","false",1,"","oaAlpha",FALSE,51
"image-keyboard-response",237,181990,"0.0-237.0",105,1,"2022-05-29 23:11:25","01bf73284bfe92835907527684da8ca2","628fcbcb54e135665d413f3f",1,"prolific","","","","","",414,"nz1_74_b.jpg","g",TRUE,"628fcbcb54e135665d413f3f",0,52,2,"same","same","nz1_78_b.jpg","nz1_74_b.jpg","long","false",1,"","oaAlpha",FALSE,52
"image-keyboard-response",241,183975,"0.0-241.0",105,1,"2022-05-29 23:11:25","01bf73284bfe92835907527684da8ca2","628fcbcb54e135665d413f3f",1,"prolific","","","","","",99,"nz1_30_b.jpg","g",TRUE,"628fcbcb54e135665d413f3f",0,53,2,"diff","diff","nz1_66_a.jpg","nz1_30_b.jpg","long","false",1,"","oaAlpha",FALSE,53
"image-keyboard-response",245,186440,"0.0-245.0",105,1,"2022-05-29 23:11:25","01bf73284bfe92835907527684da8ca2","628fcbcb54e135665d413f3f",1,"prolific","","","","","",576,"nz1_22_a.jpg","g",TRUE,"628fcbcb54e135665d413f3f",0,54,1,"diff","diff","nz1_22_b.jpg","nz1_22_a.jpg","long","true",1,"","oaAlpha",TRUE,54
"image-keyboard-response",249,188713,"0.0-249.0",105,1,"2022-05-29 23:11:25","01bf73284bfe92835907527684da8ca2","628fcbcb54e135665d413f3f",1,"prolific","","","","","",350,"nz1_4_b.jpg","g",TRUE,"628fcbcb54e135665d413f3f",0,55,1,"same","same","nz1_4_b.jpg","nz1_4_b.jpg","long","true",1,"","oaAlpha",TRUE,55
"image-keyboard-response",253,190763,"0.0-253.0",105,1,"2022-05-29 23:11:25","01bf73284bfe92835907527684da8ca2","628fcbcb54e135665d413f3f",1,"prolific","","","","","",148,"nz1_32_b.jpg","h",TRUE,"628fcbcb54e135665d413f3f",0,56,1,"same","diff","nz1_32_b.jpg","nz1_32_b.jpg","long","false",1,"","oaAlpha",FALSE,56
"image-keyboard-response",257,192923,"0.0-257.0",105,1,"2022-05-29 23:11:25","01bf73284bfe92835907527684da8ca2","628fcbcb54e135665d413f3f",1,"prolific","","","","","",260,"nz1_40_b.jpg","h",TRUE,"628fcbcb54e135665d413f3f",0,57,2,"same","same","nz1_44_b.jpg","nz1_40_b.jpg","long","true",1,"","oaAlpha",TRUE,57
"image-keyboard-response",261,194837,"0.0-261.0",105,1,"2022-05-29 23:11:25","01bf73284bfe92835907527684da8ca2","628fcbcb54e135665d413f3f",1,"prolific","","","","","",14,"nz1_4_a.jpg","h",TRUE,"628fcbcb54e135665d413f3f",0,58,1,"diff","same","nz1_4_b.jpg","nz1_4_a.jpg","long","false",1,"","oaAlpha",FALSE,58
"image-keyboard-response",265,197006,"0.0-265.0",105,1,"2022-05-29 23:11:25","01bf73284bfe92835907527684da8ca2","628fcbcb54e135665d413f3f",1,"prolific","","","","","",274,"nz1_34_b.jpg","g",TRUE,"628fcbcb54e135665d413f3f",0,59,1,"same","same","nz1_34_b.jpg","nz1_34_b.jpg","long","true",1,"","oaAlpha",TRUE,59
"image-keyboard-response",269,199231,"0.0-269.0",105,1,"2022-05-29 23:11:25","01bf73284bfe92835907527684da8ca2","628fcbcb54e135665d413f3f",1,"prolific","","","","","",310,"nz1_40_a.jpg","h",TRUE,"628fcbcb54e135665d413f3f",0,60,2,"diff","diff","nz1_44_b.jpg","nz1_40_a.jpg","long","true",1,"","oaAlpha",TRUE,60
"image-keyboard-response",273,201151,"0.0-273.0",105,1,"2022-05-29 23:11:25","01bf73284bfe92835907527684da8ca2","628fcbcb54e135665d413f3f",1,"prolific","","","","","",5,"nz1_71_b.jpg","g",TRUE,"628fcbcb54e135665d413f3f",0,61,1,"same","same","nz1_71_b.jpg","nz1_71_b.jpg","long","true",1,"","oaAlpha",TRUE,61
"image-keyboard-response",278,206594,"0.0-278.0",105,1,"2022-05-29 23:11:25","01bf73284bfe92835907527684da8ca2","628fcbcb54e135665d413f3f",1,"prolific","","","","","",237,"nz1_10_a.jpg","h",TRUE,"628fcbcb54e135665d413f3f",0,62,1,"diff","same","nz1_10_b.jpg","nz1_10_a.jpg","long","false",1,"","oaAlpha",FALSE,62
"image-keyboard-response",282,208595,"0.0-282.0",105,1,"2022-05-29 23:11:25","01bf73284bfe92835907527684da8ca2","628fcbcb54e135665d413f3f",1,"prolific","","","","","",86,"nz1_8_a.jpg","h",TRUE,"628fcbcb54e135665d413f3f",0,63,2,"diff","same","nz1_63_b.jpg","nz1_8_a.jpg","long","true",1,"","oaAlpha",TRUE,63
"image-keyboard-response",286,210740,"0.0-286.0",105,1,"2022-05-29 23:11:25","01bf73284bfe92835907527684da8ca2","628fcbcb54e135665d413f3f",1,"prolific","","","","","",229,"nz1_68_b.jpg","g",TRUE,"628fcbcb54e135665d413f3f",0,64,2,"diff","same","nz1_67_a.jpg","nz1_68_b.jpg","long","false",1,"","oaAlpha",FALSE,64
"image-keyboard-response",290,213397,"0.0-290.0",105,1,"2022-05-29 23:11:25","01bf73284bfe92835907527684da8ca2","628fcbcb54e135665d413f3f",1,"prolific","","","","","",737,"nz1_73_b.jpg","h",TRUE,"628fcbcb54e135665d413f3f",0,65,2,"same","diff","nz1_38_b.jpg","nz1_73_b.jpg","long","true",1,"","oaAlpha",TRUE,65
"image-keyboard-response",294,215702,"0.0-294.0",105,1,"2022-05-29 23:11:25","01bf73284bfe92835907527684da8ca2","628fcbcb54e135665d413f3f",1,"prolific","","","","","",402,"nz1_56_b.jpg","g",TRUE,"628fcbcb54e135665d413f3f",0,66,2,"same","diff","nz1_20_b.jpg","nz1_56_b.jpg","long","false",1,"","oaAlpha",FALSE,66
"image-keyboard-response",298,217611,"0.0-298.0",105,1,"2022-05-29 23:11:25","01bf73284bfe92835907527684da8ca2","628fcbcb54e135665d413f3f",1,"prolific","","","","","",1,"nz1_67_a.jpg","h",TRUE,"628fcbcb54e135665d413f3f",0,67,2,"diff","same","nz1_68_b.jpg","nz1_67_a.jpg","long","true",1,"","oaAlpha",TRUE,67
"image-keyboard-response",302,219769,"0.0-302.0",105,1,"2022-05-29 23:11:25","01bf73284bfe92835907527684da8ca2","628fcbcb54e135665d413f3f",1,"prolific","","","","","",406,"nz1_22_b.jpg","g",TRUE,"628fcbcb54e135665d413f3f",0,68,1,"same","diff","nz1_22_b.jpg","nz1_22_b.jpg","short","true",1,"","oaAlpha",TRUE,68
"image-keyboard-response",306,221723,"0.0-306.0",105,1,"2022-05-29 23:11:25","01bf73284bfe92835907527684da8ca2","628fcbcb54e135665d413f3f",1,"prolific","","","","","",195,"nz1_10_a.jpg","g",TRUE,"628fcbcb54e135665d413f3f",0,69,1,"diff","diff","nz1_10_b.jpg","nz1_10_a.jpg","short","true",1,"","oaAlpha",TRUE,69
"image-keyboard-response",310,223530,"0.0-310.0",105,1,"2022-05-29 23:11:25","01bf73284bfe92835907527684da8ca2","628fcbcb54e135665d413f3f",1,"prolific","","","","","",41,"nz1_60_b.jpg","h",TRUE,"628fcbcb54e135665d413f3f",0,70,2,"same","diff","nz1_62_b.jpg","nz1_60_b.jpg","short","true",1,"","oaAlpha",TRUE,70
"image-keyboard-response",314,225279,"0.0-314.0",105,1,"2022-05-29 23:11:25","01bf73284bfe92835907527684da8ca2","628fcbcb54e135665d413f3f",1,"prolific","","","","","",1,"nz1_20_b.jpg","g",TRUE,"628fcbcb54e135665d413f3f",0,71,2,"diff","same","nz1_56_a.jpg","nz1_20_b.jpg","short","false",1,"","oaAlpha",FALSE,71
"image-keyboard-response",318,227244,"0.0-318.0",105,1,"2022-05-29 23:11:25","01bf73284bfe92835907527684da8ca2","628fcbcb54e135665d413f3f",1,"prolific","","","","","",197,"nz1_8_a.jpg","h",TRUE,"628fcbcb54e135665d413f3f",0,72,1,"diff","same","nz1_8_b.jpg","nz1_8_a.jpg","short","false",1,"","oaAlpha",FALSE,72
